Time,A_Temp,A_AccX,A_AccY,A_AccZ,A_GyroX,A_GyroY,A_GyroZ,A_AccAngX,A_AccAngY,A_AngleX,A_AngleY,A_AngleZ;B_Temp,B_AccX,B_AccY,B_AccZ,B_GyroX,B_GyroY,B_GyroZ,B_AccAngX,B_AccAngY,B_AngleX,B_AngleY,B_AngleZ
Uptime 00:00:00, 22.48,  0.41,  0.03,  0.92, -9.78,-42.14,-12.08,  1.76, 24.29,-20.27,-87.94,-25.58; 28.04,  0.09, -0.23,  1.09,-22.33,  6.79, 21.07,-11.72,  4.58,-24.66,  7.34, 23.51
Uptime 00:00:00, 22.53,  0.42,  0.11,  0.88, -2.27, 10.32,  4.20,  6.64, 25.30,-20.01,-85.45,-25.06; 28.13,  0.03, -0.22,  1.17, -6.27,  5.36, 11.85,-10.68,  1.48,-25.14,  7.81, 24.97
Uptime 00:00:00, 22.58,  0.54,  0.13,  0.85,-37.19,  8.25,  6.56,  7.15, 32.11,-24.02,-83.37,-24.24; 28.13,  0.18, -0.32,  1.08,  5.90, -3.30, -6.63,-16.20,  9.04,-24.23,  7.06, 24.14
Uptime 00:00:00, 22.62,  0.31, -0.03,  0.86,-29.25, 51.15, 36.14, -1.66, 19.84,-27.10,-75.93,-19.80; 28.22,  0.10, -0.17,  1.07,  9.24,  6.55,-75.66, -9.05,  5.26,-22.82,  7.61, 14.83
Uptime 00:00:00, 22.67,  0.16,  0.28,  0.97,-13.65, 33.35, -0.29, 15.94,  9.21,-27.88,-70.58,-19.83; 28.22,  0.23, -0.05,  0.98, -2.26, 31.55,-55.80, -2.69, 13.42,-22.69, 10.99,  7.97
Uptime 00:00:00, 22.58,  0.29,  0.10,  1.02,-35.51,-25.74, -2.23,  5.32, 15.66,-31.60,-72.66,-20.12; 28.27,  0.04, -0.00,  0.92,-19.46,-43.93,-70.47, -0.07,  2.45,-24.64,  5.30, -0.91
Uptime 00:00:00, 22.62,  0.25,  0.19,  0.98, 17.07, 36.67, 27.75, 10.62, 14.22,-28.70,-67.07,-16.70; 28.27,  0.24,  0.19,  1.09,-47.23, -8.20,-62.12,  9.94, 12.23,-29.64,  3.96, -8.55
Uptime 00:00:00, 22.58,  0.14, -0.27,  1.19,-42.41, -5.10, 75.17,-12.70,  6.66,-33.49,-66.48, -7.46; 28.36,  0.19, -0.01,  0.97,-10.76,-100.52,-197.15, -0.59, 10.86,-30.36, -8.45,-32.80
Uptime 00:00:00, 22.62,  0.05, -0.13,  0.96, -6.06, 11.76,  1.71, -7.73,  3.00,-33.72,-63.77, -7.24; 28.36, -0.16, -0.50,  1.11,  0.63, -8.90,-65.54,-24.23, -7.66,-30.16, -9.22,-40.99
Uptime 00:00:01, 22.58,  0.28, -0.26,  1.21,-11.31,  9.47,-70.70,-11.66, 12.77,-34.65,-61.60,-16.01; 28.36,  0.16, -0.42,  1.26, 20.05, 27.49, 56.20,-18.20,  6.95,-27.48, -5.84,-34.02
Uptime 00:00:01, 22.58,  0.43, -0.14,  0.68,-23.49,  8.70, 56.79, -9.56, 31.78,-36.99,-59.95, -9.02; 28.46,  0.50, -0.38,  0.96, 18.31, 32.68,-23.47,-19.15, 25.82,-25.11, -2.30,-36.91
Uptime 00:00:01, 22.62, -0.11, -0.13,  1.24, 60.14, 40.49,106.44, -6.03, -5.14,-29.00,-53.69,  4.28; 28.46,  0.02, -0.01,  1.34,-34.55,-78.75,-204.14, -0.39,  0.88,-28.84,-11.92,-62.43
Uptime 00:00:01, 22.58, -0.23,  0.01,  0.61,-62.33,-13.60,-32.14,  1.02,-20.17,-35.91,-53.85,  0.33; 28.46, -0.35, -0.53,  1.23, 45.64, 41.63,-14.99,-22.41,-14.54,-23.21, -6.37,-64.27
Uptime 00:00:01, 22.53, -0.04, -0.34,  1.33, 65.56,-34.23,-49.51,-14.18, -1.75,-27.45,-56.93, -5.86; 28.55, -0.49,  0.17,  1.33,-14.04,  2.78,185.43,  6.97,-20.03,-24.33, -5.50,-41.09
Uptime 00:00:01, 22.67,  0.44,  0.01,  0.75,-51.07,-56.94, 86.62,  0.69, 30.51,-33.04,-63.27,  4.79; 28.55,  0.40, -0.66,  1.08, 45.93, 24.52, -0.98,-29.73, 17.60,-18.90, -2.79,-41.21
Uptime 00:00:01, 22.62, -0.21, -0.12,  1.36,100.40, 62.12,135.10, -4.77, -8.72,-20.27,-54.28, 21.55; 28.65,  0.72, -0.06,  1.43,-30.10,-81.80,-141.25, -2.01, 26.69,-22.22,-13.21,-58.73
Uptime 00:00:01, 22.62, -0.35,  0.10,  0.70,-48.90,-20.76, 18.95,  7.42,-26.16,-25.71,-55.21, 23.91; 28.60, -0.54, -0.54,  1.15, 30.03, 56.26,  2.30,-23.27,-23.14,-18.57, -5.59,-58.44
Uptime 00:00:02, 22.67, -0.07, -0.43,  1.23, 41.45,-57.75,-66.26,-19.16, -2.91,-20.58,-61.01, 15.76; 28.69, -0.16, -0.07,  1.50,-16.65, 68.33,175.82, -2.49, -5.93,-20.25,  2.88,-36.81
Uptime 00:00:02, 22.72,  0.35,  0.02,  0.95,-57.83,-61.10, 66.95,  0.96, 20.08,-27.12,-67.56, 24.00; 28.65,  0.37, -0.61,  1.20, 48.83,-12.43, 36.52,-25.99, 15.38,-14.48,  1.02,-32.32
Uptime 00:00:02, 22.67,  0.07, -0.23,  0.84, 66.19, 79.41,137.68,-15.31,  4.81,-18.78,-56.57, 41.21; 28.69, -0.22, -0.20,  1.39,-81.17,-79.01,-133.68, -8.12, -9.10,-24.30, -8.50,-49.03
Uptime 00:00:02, 22.62, -0.50,  0.02,  1.11,-26.61,  9.39, 93.13,  0.74,-24.02,-21.60,-53.83, 52.66; 28.79, -0.14, -0.93,  1.28, 24.31, 80.43,-75.44,-35.90, -4.94,-21.60,  1.46,-58.31
Uptime 00:00:02, 22.67, -0.13,  0.07,  0.74,-12.00,-25.31,-39.60,  5.37,-10.13,-22.50,-55.60, 47.79; 28.79, -0.27, -0.00,  0.85, 13.06, 50.24, 73.57, -0.31,-17.91,-19.60,  7.85,-49.26
Uptime 00:00:02, 22.72,  0.38, -0.01,  1.23, 43.44,-37.89, 66.17, -0.42, 17.28,-16.74,-59.48, 56.06; 28.79, -0.17, -0.84,  1.44,-30.96,-14.26, 89.04,-30.25, -5.68,-23.60,  6.06,-38.13
Uptime 00:00:02, 22.76,  0.19,  0.08,  0.70,-11.20, 41.77,127.27,  5.89, 15.38,-17.68,-53.40, 72.23; 28.88,  0.05, -0.25,  0.96, 73.47, 28.23,  8.78,-14.58,  2.70,-14.28,  9.40,-37.02
Uptime 00:00:02, 22.67, -0.26, -0.19,  1.16,  0.90, 70.05, 64.27, -9.05,-12.31,-17.40,-43.43, 80.32; 28.88, -0.03, -0.17,  1.26,-103.11,-41.47,-110.12, -7.59, -1.34,-26.88,  4.11,-50.89
Uptime 00:00:03, 22.72, -0.42,  0.07,  0.98,-36.58, -1.17,112.09,  3.77,-23.26,-21.38,-42.24, 94.11; 28.88, -0.38, -0.53,  1.15, 48.02, 56.18,-83.56,-23.65,-16.86,-21.03, 11.14,-61.17
Uptime 00:00:03, 22.76, -0.60,  0.09,  0.73,-24.04,-23.22, 77.69,  5.49,-38.92,-23.74,-43.42,103.67; 28.98, -0.09,  0.05,  1.27,-15.55, 16.01,122.18,  2.10, -3.87,-22.44, 12.93,-46.14
Uptime 00:00:03, 22.81, -0.47, -0.07,  1.12, -6.35,-52.14,103.66, -3.29,-22.55,-24.12,-48.53,116.73; 28.88, -0.16, -0.58,  1.48, 15.33, 33.22,183.11,-21.20, -5.87,-20.52, 16.89,-23.07
Uptime 00:00:03, 22.76,  0.04, -0.21,  0.92, -1.89,-29.68,218.81,-12.69,  2.62,-24.12,-51.19,143.64; 28.98,  0.15, -0.16,  0.79, 16.52, 83.45,110.05,-10.97, 10.28,-18.34, 26.40, -9.53
Uptime 00:00:03, 22.67, -0.58,  0.12,  1.23, -6.18, 22.74,191.20,  4.85,-25.07,-24.28,-46.93,167.16; 29.02, -0.37, -0.49,  1.32,-93.34,-21.94, -9.97,-19.65,-14.80,-29.61, 23.53,-10.76
Uptime 00:00:03, 22.72, -0.58,  0.02,  0.86,-52.44,-55.25,123.11,  1.02,-33.79,-30.20,-52.08,182.55; 29.02, -0.43, -0.39,  1.01, 63.41,  3.89, 78.09,-19.55,-21.68,-21.65, 23.96, -1.00
Uptime 00:00:03, 22.67, -0.33, -0.05,  0.88,  6.43,-78.99,106.98, -2.76,-20.64,-28.88,-60.15,195.71; 28.93,  0.06, -0.19,  1.26,-53.51,172.96,185.80, -8.71,  2.48,-27.84, 44.28, 21.86
Uptime 00:00:03, 22.81, -0.50,  0.14,  1.18,-39.49, 78.77,107.42,  6.38,-22.87,-32.93,-48.99,208.92; 29.02, -0.71, -0.23,  1.34, -9.19, 25.10,248.41, -8.76,-27.60,-28.56, 46.98, 52.41
Uptime 00:00:04, 22.76, -0.00, -0.37,  0.72,-40.79,-140.87,183.46,-27.20, -0.28,-37.86,-65.40,232.04; 28.93,  0.08, -0.41,  0.96,-15.08, 83.28, 80.60,-23.05,  4.28,-30.31, 56.23, 62.57
Uptime 00:00:04, 22.67, -0.41,  0.14,  1.28, 59.01,  9.65,147.62,  5.87,-17.61,-29.87,-62.58,250.19; 29.02, -0.01, -0.04,  1.42, 34.66,  8.30, 35.57, -1.81, -0.60,-25.57, 56.12, 66.94
Uptime 00:00:04, 22.72, -0.31,  0.04,  0.86,-34.64,-17.89,113.11,  2.69,-19.91,-33.39,-63.09,264.11; 29.02, -0.60, -0.48,  1.09, 34.89, 50.96, 25.01,-21.02,-26.64,-21.27, 61.68, 70.02
Uptime 00:00:04, 22.76, -0.38, -0.44,  0.93, 32.55,-37.19, 22.18,-23.70,-20.14,-29.21,-65.98,266.88; 29.02,  0.71, -0.23,  1.67,-26.85, 68.17,250.30, -7.17, 22.91,-24.28, 68.33,101.30
Uptime 00:00:04, 22.72,  0.05,  0.07,  1.11,-24.61,-75.65,134.43,  3.39,  2.49,-31.55,-73.90,283.55; 29.12,  0.15, -0.79,  1.26, -1.25,-19.38,113.69,-31.87,  5.61,-24.58, 64.50,115.40
Uptime 00:00:04, 22.67, -0.30, -0.12,  0.79, 60.81, 12.64,219.13, -8.32,-20.56,-23.58,-70.45,311.16; 29.12, -0.38, -0.36,  1.43,-66.82,-48.55,-24.53,-13.72,-14.65,-32.62, 57.51,112.31
Uptime 00:00:04, 22.81, -0.14,  0.07,  1.00,-16.62, 30.69, 88.17,  3.85, -7.99,-25.03,-65.18,322.00; 29.12, -0.29, -0.88,  1.27,-15.54,101.45,-57.65,-33.97,-10.57,-34.52, 68.80,105.22
Uptime 00:00:04, 22.81, -0.32, -0.16,  0.69, 14.99,-25.86,-30.35,-12.13,-24.58,-22.97,-66.50,318.27; 29.26, -0.59, -0.11,  1.44,-40.82,-17.39,107.77, -4.17,-22.02,-38.83, 65.77,118.48
Uptime 00:00:05, 22.72,  0.40,  0.22,  1.21, -3.80,-56.44, 96.76,  9.61, 18.11,-22.78,-72.45,330.36; 29.21, -0.29, -0.90,  1.33,-43.65,-22.51,109.27,-33.49,-10.05,-44.07, 61.89,132.13
Uptime 00:00:05, 22.72, -0.28, -0.04,  0.74, 34.06, 32.95,193.66, -2.73,-20.65,-18.27,-66.62,354.18; 29.21, -0.38, -0.51,  1.63, 45.04,-22.17,-86.26,-16.84,-12.61,-38.09, 58.24,121.52
Uptime 00:00:05, 22.86, -0.34,  0.21,  0.97,-13.63, 29.80,-14.43, 11.36,-19.05,-19.32,-61.31,352.41; 29.26, -0.75, -0.79,  1.21,-41.77, 20.49,-34.43,-29.11,-27.40,-42.95, 60.09,117.29
Uptime 00:00:05, 22.81,  0.06, -0.09,  1.33,  5.19,-38.24,-85.19, -3.77,  2.66,-18.33,-65.16,340.99; 29.16, -0.31,  0.68,  1.31, 38.48, 59.83,121.54, 26.88,-12.04,-36.50, 66.99,133.58
Uptime 00:00:05, 22.76,  0.29, -0.41,  0.69,  0.92, 54.43, 97.43,-29.00, 19.64,-18.43,-57.53,353.27; 29.26, -0.08, -0.66,  0.62, 22.23, 40.62,-83.05,-46.51, -5.10,-33.96, 70.76,123.11
Uptime 00:00:05, 22.81, -0.13,  0.62,  1.18, 51.91, 51.21,-36.05, 27.50, -5.52,-11.10,-49.94,348.73; 29.16,  0.23, -0.13,  1.32,-54.30, 67.77,-156.99, -5.38,  9.70,-40.09, 77.52,103.33
Uptime 00:00:05, 22.76, -0.31, -0.32,  0.95, 18.51,-74.82,-160.78,-17.85,-17.46, -8.92,-57.98,328.15; 29.26, -0.37, -0.49,  1.30, 33.16, -9.51, 40.87,-20.02,-14.99,-35.53, 75.08,108.56
Uptime 00:00:05, 22.76,  0.34,  0.47,  1.00,-40.61,-106.61, 65.13, 23.87, 17.23,-13.27,-70.33,336.36; 29.26, -0.11, -1.04,  1.27,-18.36,-79.94, 44.75,-39.27, -4.00,-37.87, 63.79,114.20
Uptime 00:00:06, 22.81,  0.14,  0.01,  0.61, 26.83, 78.75,138.95,  1.25, 13.13, -9.59,-59.23,354.28; 29.35, -0.31, -0.14,  1.47,-65.66,-39.59,-119.21, -5.29,-11.74,-45.52, 57.74, 98.82
Uptime 00:00:06, 22.72, -0.16,  0.11,  1.06,-10.33, 22.66,-32.80,  5.97, -8.80,-10.56,-55.07,350.15; 29.35, -0.24, -0.84,  1.37, -8.73, 24.81,-135.48,-31.14, -8.50,-46.31, 59.82, 81.75
Uptime 00:00:06, 22.81,  0.14,  0.04,  0.77,  7.04,-61.11,-196.87,  3.20, 10.49, -9.41,-61.73,325.34; 29.40, -0.12, -0.21,  1.42,-16.64,-21.18,-17.08, -8.52, -4.74,-47.61, 56.10, 79.60
Uptime 00:00:06, 22.86,  0.33,  0.28,  1.16,-37.43,-28.94, 18.82, 12.93, 15.70,-13.66,-64.44,327.75; 29.31, -0.17, -1.21,  1.38, 21.18,-44.02,  1.85,-41.04, -5.43,-44.82, 49.57, 79.84
Uptime 00:00:06, 22.81,  0.31, -0.13,  0.60,-16.33, 45.59, 46.88,-11.18, 26.90,-15.63,-58.06,333.66; 29.40,  0.11, -0.12,  1.29,-42.76,-21.96,-153.31, -5.47,  4.66,-49.31, 45.77, 60.52
Uptime 00:00:06, 22.86, -0.10,  0.14,  1.14, -1.27,  9.42,-13.12,  6.88, -4.85,-15.33,-55.63,332.01; 29.49, -0.08, -0.57,  1.30,-50.81, 41.80,-164.28,-23.49, -3.06,-55.07, 50.08, 39.82
Uptime 00:00:06, 22.86, -0.04, -0.08,  0.81, 20.72,  4.28,-100.76, -5.49, -2.68,-12.52,-53.93,319.01; 29.40, -0.34, -0.27,  1.30,-15.60, 23.51,  2.11,-11.27,-14.40,-56.17, 52.34, 40.09
Uptime 00:00:06, 22.81,  0.30,  0.35,  1.11,-23.08,-49.37, 42.14, 16.93, 14.48,-14.78,-59.23,324.32; 29.49,  0.12, -0.73,  1.32,-23.92,-87.56, 15.18,-28.79,  4.66,-58.57, 40.38, 42.00
Uptime 00:00:07, 22.76,  0.00, -0.13,  1.20, 23.13, 33.39,155.43, -6.29,  0.06,-11.75,-53.93,343.90; 29.49, -0.30, -0.52,  1.25, 58.26, -7.68,-202.24,-21.99,-12.35,-50.65, 38.88, 16.52
Uptime 00:00:07, 22.81, -0.35,  0.24,  0.92,-45.72,-12.96,-13.70, 13.65,-20.00,-16.98,-54.08,342.15; 29.49, -0.46, -0.40,  1.25,-12.20,  7.19,  3.95,-16.91,-19.45,-51.50, 39.39, 17.03
Uptime 00:00:07, 22.86, -0.04, -0.20,  0.97, 38.20,-39.86,-13.18,-11.53, -2.21,-12.15,-57.87,340.49; 29.45, -0.25,  0.57,  1.30, 34.23, 14.06,188.66, 23.48,-10.20,-45.77, 40.54, 40.80
Uptime 00:00:07, 22.81,  0.16, -0.48,  1.02, 78.09, 46.05,156.00,-25.05,  8.16, -2.77,-51.19,360.14; 29.49, -0.13, -0.96,  1.23, 38.02, 15.11,-63.97,-37.73, -4.62,-40.92, 41.69, 32.74
Uptime 00:00:07, 22.86,  0.02,  0.80,  0.70,-35.14,100.57, 28.43, 48.75,  0.94, -6.15,-37.57,363.78; 29.54, -0.34, -0.53,  1.03,-59.74,128.27,-90.23,-25.87,-16.46,-48.11, 57.27, 21.19
Uptime 00:00:07, 22.91, -0.56, -0.20,  1.14, 45.71,-84.00,-67.15, -9.08,-25.65, -0.56,-46.68,355.32; 29.54,  0.53, -0.04,  1.67, 21.07, 70.79,174.55, -1.15, 17.74,-44.57, 64.52, 43.18
Uptime 00:00:07, 22.86,  0.53,  0.07,  1.07,-99.42,-91.26, 71.60,  3.56, 26.58,-12.95,-57.72,364.49; 29.45,  0.55, -0.79,  1.02, 12.52,  7.14, 75.97,-34.27, 23.17,-42.79, 63.66, 52.91
Uptime 00:00:08, 22.86, -0.18, -0.03,  1.14, 70.52, 82.28,137.72, -1.69, -8.98, -4.02,-46.23,381.84; 29.54,  0.03, -0.07,  1.34,-12.15,-102.78,-117.92, -3.17,  1.27,-43.50, 49.67, 38.05
Uptime 00:00:08, 22.81, -0.54,  0.00,  0.84,  8.35,-34.07, 11.37,  0.26,-32.81, -2.90,-48.86,383.27; 29.54, -0.50, -0.62,  1.02, -5.78, 28.26, 13.01,-28.67,-22.96,-43.92, 52.62, 39.69
Uptime 00:00:08, 22.86,  0.17, -0.06,  1.37,-38.76,-86.26,-30.28, -2.30,  6.87, -7.75,-58.84,379.40; 29.64, -0.35,  0.01,  1.17, 36.29, 48.99,140.66,  0.48,-16.51,-38.48, 58.05, 57.69
Uptime 00:00:08, 22.91,  0.51, -0.10,  0.75,-36.26,  0.89, 69.24, -6.39, 33.74,-12.20,-58.23,388.12; 29.54,  0.39, -0.52,  0.59, 31.73, 19.28, -9.40,-36.26, 26.58,-34.52, 58.73, 56.50
Uptime 00:00:08, 22.76, -0.32,  0.18,  1.24, 40.54, 63.18,117.68,  8.06,-14.13, -6.79,-48.98,402.95; 29.49,  0.41,  0.40,  1.47, -1.68,-54.41,-114.37, 14.85, 15.16,-33.74, 50.54, 42.09
Uptime 00:00:08, 22.91, -0.22,  0.12,  0.79,-50.26,-67.57,-75.21,  8.01,-15.33,-12.80,-56.17,393.32; 29.59, -0.50, -0.63,  0.70, 72.06, -6.46, 13.51,-36.07,-27.73,-24.74, 49.27, 43.82
Uptime 00:00:08, 22.91,  0.22,  0.30,  0.91,-61.19,-24.33, 26.12, 17.77, 13.18,-19.74,-58.31,396.61; 29.59, -0.26,  0.17,  0.95, -9.17,-40.80, 81.33,  9.56,-15.16,-25.19, 43.55, 54.07
Uptime 00:00:08, 22.86,  0.37, -0.80,  0.96,146.55, 56.11, 80.84,-37.61, 16.61, -2.00,-50.55,406.80; 29.68, -0.43, -0.56,  1.86, -4.82, 15.92,-156.70,-16.48,-12.45,-25.61, 44.89, 34.33
Uptime 00:00:09, 22.91, -0.09,  0.59,  0.16,-23.22, 79.53, 49.51, 73.00, -8.33, -3.42,-39.40,413.14; 29.68, -0.35, -0.48,  0.09, 46.63, 47.75,-96.55,-52.89,-35.62,-20.31, 50.70, 21.97
Uptime 00:00:09, 22.86, -0.36,  0.30,  1.67, 59.33,-104.03,-37.30, 10.02,-11.89,  4.24,-51.32,408.40; 29.59,  0.40,  0.56,  2.11, 36.66,-31.21,149.25, 14.61, 10.39,-15.05, 45.59, 40.92
Uptime 00:00:09, 22.81,  0.17, -0.05, -0.03,-54.43,-40.35, 64.06,-15.87, 71.71, 10.66,-57.52,416.60; 29.59, -0.33, -0.50, -0.15,  5.32, 63.42,-53.57,-54.41,-32.15,-16.50, 55.59, 34.07
Uptime 00:00:09, 22.86,  0.17,  0.60,  1.95, 99.65,107.51,272.58, 16.92,  4.71, 23.09,-43.19,450.94; 29.59,  0.32,  0.28,  2.27, 11.09,-24.89,-92.82,  6.98,  8.00,-14.66, 51.25, 22.37
Uptime 00:00:09, 22.86, -0.61, -0.69,  0.11,-146.62,-65.60,-89.25,-48.06,-41.15,  3.42,-49.67,439.61; 29.54, -0.78, -0.77,  0.78,-38.00,  8.87,211.08,-34.74,-35.55,-19.79, 52.04, 49.18
Uptime 00:00:09, 22.91,  0.71, -0.08,  0.48,-97.80,-171.07, 35.14, -5.39, 55.90, -9.02,-71.25,444.11; 29.64, -0.17, -0.74,  0.64,-30.64,138.33, 10.17,-48.56, -9.59,-24.21, 68.54, 50.48
Uptime 00:00:09, 22.91,  0.72, -0.18,  1.06,152.96, 75.25,171.16, -8.12, 33.77,  9.88,-61.21,465.67; 29.64,  0.23, -0.96,  2.27, 15.67,  7.68,-85.04,-22.72,  5.42,-22.25, 68.01, 39.76
Uptime 00:00:09, 22.91, -0.28,  0.15, -0.04,-120.96, 95.90, 14.09, 27.03,-61.97, 25.16,-45.78,467.45; 29.59,  0.01, -0.64,  0.01,-38.49,158.90,-76.76,-88.55,  1.28,-28.32, 86.25, 30.09
Uptime 00:00:10, 22.86, -0.19,  0.37,  1.43, 45.99,-163.85,-165.82, 14.48, -7.34, 30.76,-65.43,446.06; 29.64,  0.16,  0.44,  1.95, 28.39,-11.64,156.69, 12.67,  4.50,-23.92, 82.96, 50.30
Uptime 00:00:10, 23.00,  0.41, -0.51,  0.70,-29.56,-25.86, 79.97,-32.02, 25.65, 25.86,-67.83,456.13; 29.64,  0.44, -1.13,  0.59,-24.04, 27.94,-33.51,-56.96, 19.02,-27.55, 84.37, 46.08
Uptime 00:00:10, 22.86, -0.19,  0.32,  1.16, 22.38, 92.87,148.87, 15.25, -9.12, 28.41,-54.82,474.89; 29.73,  0.81, -0.25,  1.47, 13.35,-65.90,-82.03, -8.51, 28.40,-25.52, 73.98, 35.75
Uptime 00:00:10, 23.00, -0.46, -0.17,  0.74,  4.44, 21.76,-12.05,-11.11,-31.41, 28.18,-50.37,473.35; 29.64, -0.39, -0.68,  0.99, 22.86,-21.76, -0.32,-32.28,-18.03,-22.78, 70.13, 35.70
Uptime 00:00:10, 22.95, -0.03,  0.18,  1.16, -0.96,-85.22,-28.09,  8.84, -1.67, 27.67,-59.85,469.81; 29.64, -0.15, -0.60,  1.45,-21.02, 30.70, 80.18,-22.32, -5.51,-25.37, 72.63, 45.81
Uptime 00:00:10, 22.86,  0.32,  0.09,  0.90,-10.59,-86.97, 20.00,  5.43, 19.31, 25.92,-69.78,472.33; 29.68,  0.33, -0.76,  1.13, 56.77,-19.01, 82.08,-32.70, 13.73,-18.51, 68.55, 56.15
Uptime 00:00:10, 23.00,  0.25,  0.27,  0.72, 30.83, 54.52, 80.24, 19.11, 17.79, 29.53,-62.11,482.28; 29.68,  0.14, -0.07,  1.28, 16.08, 52.93, 28.96, -3.32,  6.14,-16.25, 73.49, 59.74
Uptime 00:00:10, 22.95, -0.31,  0.22,  0.86,-79.10, 17.88, 95.97, 13.72,-18.99, 19.44,-58.28,494.37; 29.68,  0.14, -0.17,  1.16, 17.48, 46.46,-63.10, -8.08,  6.93,-13.93, 77.62, 51.79
Uptime 00:00:11, 22.91, -0.19,  0.21,  0.99,-26.56, -6.30, -0.69, 11.88,-10.84, 15.78,-57.74,494.28; 29.78, -0.60, -0.06,  0.96, 25.50,  9.72, 47.42, -3.29,-31.96,-10.34, 77.99, 58.19
Uptime 00:00:11, 22.86, -0.08,  0.37,  0.58, -5.86,-75.26,140.98, 32.56, -6.25, 15.39,-65.75,512.04; 29.78, -0.06,  0.23,  1.11,-21.28,-53.44,134.72, 11.77, -2.86,-12.53, 69.89, 75.17
Uptime 00:00:11, 22.95,  0.14, -0.02,  1.46, 86.06, 56.60,214.76, -0.98,  5.65, 25.69,-57.56,539.10; 29.78, -0.94,  0.08,  2.15, 99.59, 54.64,-104.29,  2.03,-23.65,  0.06, 75.71, 62.03
Uptime 00:00:11, 23.00, -0.47,  0.00,  0.33,-54.99,  0.64, -1.45,  0.36,-54.66, 18.29,-55.23,538.92; 29.78, -0.60, -1.08,  0.20,-140.84, 64.75, 32.03,-59.51,-28.83,-18.80, 82.90, 66.13
Uptime 00:00:11, 22.95,  0.18,  0.34,  0.99,-45.22,-128.64, 62.88, 18.44,  9.74, 12.70,-70.21,546.84; 29.78,  0.02, -0.22,  0.99, 35.06,  4.46, 74.47,-12.32,  1.22,-14.34, 81.77, 75.51
Uptime 00:00:11, 22.91,  0.57, -0.53,  1.48,150.61, 73.09,179.57,-18.37, 19.83, 30.68,-60.18,569.47; 29.78, -0.45, -0.81,  2.27,  3.26, 62.73,-142.46,-19.26,-10.61,-14.03, 88.09, 57.56
Uptime 00:00:11, 22.95, -0.48,  0.44, -0.22,-97.05, 52.80,-17.57, 39.47,-44.39, 43.03,-56.84,567.22; 29.78, -0.60, -0.44, -0.04, 10.71, 86.94,  7.18,-36.06,-53.76,-15.82, 99.76, 58.48
Uptime 00:00:11, 22.91,  0.50,  0.15,  0.38,-73.62,-206.82,  8.64, 13.69, 50.51, 33.35,-82.25,568.30; 29.73,  0.48, -0.29,  0.60,-85.32,155.80, 76.41,-20.73, 35.46,-26.45,116.29, 68.11
Uptime 00:00:12, 22.95, -0.14, -0.35,  1.19,149.93, 44.23,226.84,-16.46, -6.25, 51.02,-74.97,597.11; 29.82,  0.44, -0.96,  1.62,113.12, 11.66,-60.12,-29.83, 13.14,-12.44,115.15, 60.47
Uptime 00:00:12, 23.00, -0.18,  0.30, -0.14,-76.18, 79.04, -0.25, 52.24,-28.98, 60.67,-67.66,597.08; 29.73, -0.37, -0.72,  0.07,-68.68,187.22, 32.29,-62.77,-26.67,-22.13,137.05, 64.64
Uptime 00:00:12, 22.81, -0.36,  0.32,  1.73,  5.64,-157.86,-173.04, 10.13,-11.66, 60.36,-85.57,575.28; 29.82,  0.28,  0.02,  2.14, 86.54, 37.94,145.40,  0.60,  7.38,-10.99,138.85, 82.96
Uptime 00:00:12, 22.86,  0.23, -0.33,  0.18,  0.92,-23.68,143.86,-48.59, 31.75, 61.89,-87.46,593.69; 29.73, -0.09, -0.91,  0.28,-38.93, 45.49,-13.33,-72.19, -5.24,-17.10,141.88, 81.25
Uptime 00:00:12, 22.91, -0.56,  1.33,  1.53,-17.63,113.36,155.75, 39.32,-15.36, 59.26,-71.41,613.32; 29.92,  0.53,  0.14,  1.82, 82.26,  5.04,-57.10,  4.33, 16.08, -6.51,139.35, 74.06
Uptime 00:00:12, 22.95, -0.68, -1.01,  0.68, 20.12, -5.20, 17.54,-46.44,-29.10, 63.24,-70.04,615.53; 29.78, -0.45, -0.88,  0.47,-35.08,  5.31, 30.52,-53.61,-24.26,-11.78,137.70, 77.90
Uptime 00:00:12, 22.91,  0.56,  0.46,  1.29,-17.02,-104.82, 17.37, 17.97, 22.25, 60.18,-82.34,617.77; 29.78, -0.76, -0.27,  1.46, 49.73, 17.39,105.69, -9.46,-27.12, -5.45,137.69, 91.54
Uptime 00:00:12, 22.95,  0.27, -0.37,  0.83,-42.88,-22.10,104.67,-23.12, 16.44, 53.22,-83.75,630.96; 29.78,  0.25, -0.49,  0.89, 41.41, 30.90, 38.58,-28.00, 13.66, -0.79,138.47, 96.40
Uptime 00:00:13, 22.91,  0.17,  0.05,  1.23, 50.93,112.67,143.91,  2.34,  7.78, 58.49,-68.31,649.09; 29.82, -0.44, -0.04,  1.47,-34.70,-144.77,-121.04, -1.40,-16.55, -5.09,118.16, 81.15
Uptime 00:00:13, 23.05, -0.38, -0.01,  0.89,-49.13,-13.66,  3.10, -0.68,-23.03, 51.14,-68.20,649.49; 29.87, -0.25, -0.86,  1.14, 16.09, 82.94,-40.70,-36.37, -9.97, -3.69,126.40, 75.94
Uptime 00:00:13, 22.91, -0.12,  0.12,  0.92, 55.91,-24.38,-16.96,  7.24, -7.50, 57.17,-69.70,647.35; 29.78, -0.06, -0.04,  1.37,-41.63, 72.61,104.29, -1.54, -2.64, -8.79,132.89, 89.08
Uptime 00:00:13, 22.91, -0.03, -0.00,  1.27,-16.10,-26.62, 61.51, -0.13, -1.14, 54.03,-71.57,655.10; 29.78, -0.15, -0.71,  1.15,-40.62,-42.99,115.86,-31.44, -6.15,-14.26,125.05,103.67
Uptime 00:00:13, 23.05,  0.04,  0.14,  0.74,  4.23, 27.44,132.04, 10.69,  2.93, 53.70,-66.75,672.00; 29.78,  0.24, -0.13,  1.06, 60.09, 37.31, 21.34, -7.05, 12.79, -6.58,126.97,106.41
Uptime 00:00:13, 23.00, -0.06, -0.00,  1.19, 36.90, -6.44, 90.90, -0.07, -2.71, 57.18,-66.16,683.45; 29.96, -0.13, -0.11,  1.27,-48.44,-56.90,-68.70, -5.04, -5.60,-12.53,117.52, 97.75
Uptime 00:00:13, 22.95, -0.38,  0.18,  0.98,-30.30, 18.06, 21.60,  9.80,-20.56, 52.43,-62.16,686.22; 29.87, -0.17, -0.38,  1.08, 43.15, 36.44, -6.58,-19.19, -8.63, -7.25,119.91, 96.91
Uptime 00:00:13, 23.05, -0.10,  0.01,  0.97,-29.02,-65.01, 22.75,  0.52, -6.13, 47.81,-68.82,689.08; 29.96, -0.31, -0.22,  1.18, -1.97, 41.89, 75.14,-10.43,-14.67, -7.55,122.98,106.38
Uptime 00:00:14, 22.91,  0.20, -0.08,  1.15,  2.14,  2.87, 50.53, -3.68,  9.82, 47.04,-67.29,695.45; 29.92,  0.07, -0.76,  1.33, 24.75, -8.49, 60.03,-29.71,  2.51, -4.94,119.42,113.94
Uptime 00:00:14, 23.00,  0.18,  0.16,  0.57, 44.03, 12.19,194.87, 14.77, 16.39, 51.92,-64.74,720.40; 29.87, -0.16, -0.24,  1.35,-84.93, 48.33,-64.84,-10.13, -6.74,-15.70,123.23,105.64
Uptime 00:00:14, 22.91, -0.53,  0.01,  1.20,-58.38, 35.18, 28.08,  0.56,-23.96, 43.69,-58.62,723.93; 29.92, -0.23, -0.94,  1.23,-20.23, 93.31,-115.71,-36.91, -8.34,-18.62,132.45, 91.06
Uptime 00:00:14, 22.95, -0.50, -0.10,  0.80, 41.86,-44.62, 16.61, -5.81,-31.73, 47.86,-62.33,726.03; 29.92, -0.36, -0.40,  1.38,-17.48, 28.39, 98.29,-15.56,-14.24,-20.72,133.60,103.45
Uptime 00:00:14, 23.00,  0.31,  0.54,  0.87,-51.05,-27.14, 59.63, 30.21, 16.97, 41.11,-64.82,733.66; 29.92,  0.29, -0.19,  1.13,-65.32,  6.44, 53.50, -9.28, 14.00,-28.68,131.45,110.29
Uptime 00:00:14, 22.95, -0.49,  0.03,  1.28, 75.73, 40.51,185.34,  1.17,-20.94, 49.66,-58.11,757.01; 29.87, -0.24, -0.25,  1.80, 99.88,-32.26,-130.75, -7.74, -7.49,-15.93,124.99, 93.82
Uptime 00:00:14, 23.09, -0.73, -0.41,  0.80,-32.78, -2.39, 32.40,-20.61,-38.93, 44.21,-56.46,761.09; 29.92, -0.17, -1.41,  0.87,-63.07,  8.62,-18.23,-57.91, -5.90,-24.56,123.67, 91.52
Uptime 00:00:14, 23.00, -0.14,  0.42,  1.30, 26.52,-128.20,-72.38, 17.87, -5.68, 47.01,-71.30,751.83; 29.92, -0.25,  0.07,  1.27,  4.19, 33.54,175.72,  3.20,-11.27,-23.48,125.63,114.01
Uptime 00:00:15, 23.05,  0.19, -0.36,  0.62,-46.76, 30.54,146.40,-28.71, 15.03, 39.72,-66.40,770.27; 29.92,  0.13, -0.37,  0.71, 63.55, 53.75,-11.77,-27.26,  9.12,-15.71,129.57,112.53
Uptime 00:00:15, 22.91, -0.26,  0.59,  1.15,  5.80, 12.26,  6.70, 26.49,-11.17, 40.17,-63.34,771.12; 30.01,  0.39,  0.18,  1.44,-32.94,  6.36,-107.48,  6.75, 15.06,-19.32,127.47, 98.99
Uptime 00:00:15, 22.95, -0.43, -0.11,  0.82,-62.12, -8.52,-76.17, -6.85,-27.20, 31.44,-62.59,761.37; 29.96,  0.11, -0.38,  0.63, 52.37, 36.59, 41.37,-30.52,  8.34,-12.98,129.34,104.28
Uptime 00:00:15, 23.00, -0.11,  0.29,  1.21, 44.55,-67.25, 40.43, 13.49, -4.86, 36.58,-69.55,766.46; 29.87, -0.19,  0.12,  1.51,-13.02,-36.14,114.23,  4.66, -6.95,-14.23,122.43,118.68
Uptime 00:00:15, 23.05,  0.04, -0.19,  0.65,-17.43, 17.61,153.60,-16.12,  2.97, 33.34,-66.01,786.12; 30.06,  0.05, -0.24,  0.41, 44.39, 58.59,-31.24,-29.52,  6.22, -8.97,127.21,114.68
Uptime 00:00:15, 23.00, -0.30,  0.33,  1.39,-18.75, 44.96, 12.44, 13.14,-11.77, 30.62,-58.90,787.69; 29.96,  0.11, -0.40,  1.51,-12.58,  3.16,-92.78,-14.80,  3.91,-10.64,124.97,102.99
Uptime 00:00:15, 23.05, -0.15, -0.06,  0.69,-16.52,-37.14,-78.41, -4.93,-12.51, 27.87,-62.06,777.81; 29.96, -0.19, -0.13,  0.72,  4.51, 93.91, 60.29, -9.73,-14.52,-10.07,134.36,110.59
Uptime 00:00:15, 23.05,  0.22,  0.07,  1.56,  3.64,-54.46, 42.14,  2.65,  8.13, 27.82,-67.81,783.20; 29.96,  0.13, -0.66,  1.57,-67.36,-41.03, 90.61,-22.68,  4.22,-18.77,126.44,122.18
Uptime 00:00:16, 23.00, -0.09, -0.07,  0.46, 10.80, 40.90,183.40, -8.77,-11.17, 28.42,-61.18,806.31; 30.06, -0.06, -0.17,  0.76, -4.33, -3.82,-50.87,-12.43, -4.32,-19.18,123.53,115.77
Uptime 00:00:16, 23.05, -0.73,  0.12,  1.34,-20.15, -6.29, 45.63,  4.51,-28.38, 25.46,-60.17,812.06; 30.06, -0.23, -1.06,  1.66, 18.81, 45.16,-51.85,-32.26, -6.53,-17.12,126.77,109.24
Uptime 00:00:16, 23.00, -0.31, -0.41,  0.72, 50.66,-21.25,-31.99,-27.43,-20.43, 30.75,-61.22,807.97; 29.96, -0.67, -0.16,  1.10,-32.21, 61.42, 85.51, -7.04,-31.16,-20.95,132.56,120.19
Uptime 00:00:16, 22.95,  0.28,  0.08,  1.51,-17.45,-18.88, 50.03,  3.10, 10.47, 28.05,-62.54,814.27; 29.96,  0.06, -0.81,  1.40,  0.42,  7.28, 34.37,-29.98,  2.01,-21.08,130.77,124.52
Uptime 00:00:16, 23.00, -0.24, -0.22,  0.81, 48.99, 31.41,114.98,-14.43,-15.72, 33.25,-57.09,828.76; 29.96, -0.01, -0.27,  1.15,-24.65,-32.64,-144.18,-13.42, -0.48,-23.97,124.13,106.35
Uptime 00:00:16, 23.05, -0.54,  0.20,  0.91,-24.82, -9.31, 27.71, 10.65,-30.08, 29.51,-56.58,832.50; 30.01, -0.23, -0.49,  1.35, 31.19, 25.33,-35.68,-19.64, -9.05,-19.76,125.18,101.53
Uptime 00:00:16, 23.00, -0.07, -0.33,  1.01, 73.77,-45.49,-19.41,-17.92, -3.81, 37.74,-61.04,830.04; 30.01,  0.45, -0.67,  1.82,-13.58, 55.02,183.04,-19.75, 12.92,-21.44,129.21,124.60
Uptime 00:00:17, 23.09,  0.20,  0.12,  0.84,-47.20, 14.86, 82.49,  8.17, 13.31, 31.37,-58.26,840.35; 30.01,  0.22, -0.42,  1.09, 33.88, 10.72,  8.53,-20.82, 10.66,-17.24,127.74,125.67
Uptime 00:00:17, 23.05, -0.28,  0.15,  1.02, 49.68,  8.02, 74.56,  8.12,-15.10, 37.14,-55.79,849.89; 30.01, -0.27,  0.08,  1.41,  5.00,-24.75,-142.03,  3.15,-10.68,-16.21,122.29,107.49
Uptime 00:00:17, 23.09, -0.45,  0.23,  0.93,-50.03,-44.30,-68.64, 12.70,-25.48, 30.47,-59.63,841.24; 30.01, -0.07, -0.63,  0.76, 43.62, 41.78, 45.18,-39.72, -4.11,-11.29,125.09,113.18
Uptime 00:00:17, 23.05,  0.19,  0.22,  1.47, 51.45,-45.66, 51.36,  8.34,  7.47, 36.53,-64.36,847.87; 30.01, -0.19, -0.41,  1.61,-23.19, -2.14, 91.04,-14.26, -6.47,-14.28,122.44,124.93
Uptime 00:00:17, 23.00, -0.02,  0.05,  0.63,-24.47, 22.74,161.14,  4.68, -1.37, 32.87,-60.24,868.17; 30.01, -0.10, -0.35,  0.61, 46.60, 12.88,-49.51,-29.72, -8.34, -8.84,121.75,118.69
Uptime 00:00:17, 23.05, -0.44,  0.15,  1.27,  2.03, 38.86, 42.24,  6.20,-18.79, 32.59,-53.86,873.49; 30.11, -0.08, -0.65,  1.54,-45.63, 48.01,-88.81,-22.94, -2.81,-14.75,125.30,107.50
Uptime 00:00:17, 22.95, -0.19, -0.03,  0.60, -4.07,-57.91,-81.09, -3.08,-17.73, 31.37,-59.69,863.11; 30.06, -0.23, -0.11,  1.12,  0.57, 50.99, 56.44, -5.47,-11.52,-14.50,129.42,114.72
Uptime 00:00:17, 23.05,  0.36,  0.20,  1.29,-30.64, -7.63, 40.53,  8.38, 15.35, 27.12,-59.75,868.22; 30.01,  0.10, -0.68,  1.42,  0.71,-22.41, 46.00,-25.55,  3.80,-14.63,123.99,120.52
Uptime 00:00:18, 23.05, -0.27, -0.30,  0.73, 31.07,-11.65,107.62,-20.90,-19.12, 30.00,-59.61,881.78; 30.15,  0.09, -0.38,  1.13,-17.42,-17.10,-135.79,-18.64,  4.11,-16.86,119.32,103.41
Uptime 00:00:18, 23.00, -0.48,  0.30,  0.96,-16.75,-21.45,-12.72, 15.86,-25.37, 27.62,-60.60,880.15; 30.15, -0.13, -0.54,  1.40, -8.74, 34.68,-24.28,-21.09, -4.95,-18.04,121.38,100.30
Uptime 00:00:18, 23.05,  0.08, -0.38,  0.96, 49.77,  9.10,-27.19,-21.37,  4.53, 32.78,-58.36,876.73; 30.06,  0.18, -0.28,  1.88,-26.03, 64.33,133.16, -8.42,  5.42,-21.06,126.79,117.08
Uptime 00:00:18, 23.09,  0.20,  0.17,  0.93,-13.78, 18.69, 32.04,  9.87, 11.63, 30.62,-55.11,880.77; 30.15,  0.03, -0.57,  1.37, 42.64,-27.56,-12.00,-22.38,  1.26,-15.82,120.82,115.57
Uptime 00:00:18, 23.14, -0.38, -0.13,  1.00, 45.67, 26.03,117.72, -6.90,-20.78, 35.64,-50.31,895.95; 30.06, -0.26, -0.39,  1.25,-15.92,-66.84,-180.24,-17.11,-11.07,-17.86,110.18, 92.32
Uptime 00:00:18, 23.05, -0.45,  0.08,  1.09, -8.00,-33.31, 35.69,  3.85,-22.22, 34.02,-52.97,900.45; 30.06, -0.14, -0.61,  1.34,  2.23, 53.01,-12.31,-24.47, -5.43,-17.72,114.63, 90.77
Uptime 00:00:18, 23.19, -0.07, -0.21,  0.96, -7.22,-33.48,-24.75,-12.62, -3.92, 32.18,-56.03,897.28; 30.15, -0.27, -0.24,  1.23,-51.31, 40.24,135.14,-10.81,-11.96,-24.02,117.62,108.06
Uptime 00:00:18, 22.95,  0.30, -0.03,  1.18,-24.06,-49.68, 46.72, -1.64, 14.37, 28.54,-61.33,903.17; 30.15,  0.17, -0.89,  1.27, 39.12,-27.27, 70.00,-34.57,  6.31,-19.40,111.78,116.88
Uptime 00:00:19, 23.00, -0.02, -0.03,  0.81, 37.96, 38.86,160.44, -2.12, -1.52, 32.65,-55.24,923.54; 30.06, -0.18, -0.54,  1.34,-59.63,-32.49,-83.27,-21.63, -7.29,-26.86,105.64,106.31
Uptime 00:00:19, 23.14, -0.53,  0.05,  1.18, 14.06, 11.01, 24.55,  2.05,-24.24, 33.80,-52.27,926.69; 30.20, -0.24, -0.96,  1.29,-12.41, 71.71,-63.08,-36.29, -8.35,-28.61,112.69, 98.24
Uptime 00:00:19, 23.00, -0.17,  0.00,  0.79, -6.85,-28.67,-62.72,  0.01,-12.05, 32.28,-54.52,918.78; 30.11, -0.33, -0.33,  1.57,-35.75, 42.97, 90.35,-11.62,-11.75,-32.68,115.98,109.62
Uptime 00:00:19, 23.05,  0.23,  0.21,  1.12,-26.88,-63.31, 53.91, 10.18, 11.17, 28.49,-61.53,925.63; 30.11, -0.03, -0.98,  1.39,-21.11,-33.74, 49.48,-35.22, -1.12,-35.36,109.48,115.90
Uptime 00:00:19, 23.05, -0.24, -0.06,  0.79, 53.64, 41.19,164.99, -4.27,-16.72, 34.56,-54.80,946.75; 30.25, -0.42, -0.44,  1.58,-39.19,-18.93,-103.62,-15.15,-14.29,-39.87,105.20,102.64
Uptime 00:00:19, 23.09, -0.66,  0.03,  1.25, -3.22, -4.61, 35.16,  1.28,-27.75, 33.50,-53.72,951.18; 30.11, -0.33, -0.76,  1.36, -7.13, 31.10,-35.19,-28.50,-11.86,-40.53,107.18, 98.21
Uptime 00:00:19, 23.14, -0.16, -0.28,  0.90, -0.87,-55.72,-34.12,-16.94, -9.81, 32.38,-59.33,946.88; 30.11, -0.23, -0.41,  1.25,-29.22, 42.64,137.82,-17.89, -9.75,-43.68,110.49,115.57
Uptime 00:00:19, 23.09,  0.18,  0.08,  1.06,-45.95, -0.91, 81.88,  4.44,  9.67, 26.06,-58.45,957.36; 30.20,  0.12, -0.70,  1.32, 29.48,-50.86, 45.47,-28.03,  4.63,-39.67,101.81,121.39
Uptime 00:00:20, 23.05, -0.35, -0.13,  0.98, 62.60,-12.79,120.67, -7.08,-19.32, 33.13,-58.47,972.56; 30.01, -0.36, -0.01,  1.49,  5.35,-15.94,-169.57, -0.53,-13.49,-38.23, 98.08,100.02
Uptime 00:00:20, 23.09, -0.57,  0.24,  0.84,-41.54,-34.96,-19.63, 13.32,-33.35, 27.60,-60.95,970.09; 30.15, -0.25, -0.59,  0.93, 35.91, 22.33, 29.04,-31.35,-12.80,-33.66, 99.13,103.68
Uptime 00:00:20, 23.14,  0.04,  0.11,  1.13, 85.21,-40.41, 66.35,  5.69,  2.26, 37.85,-64.85,978.58; 30.15, -0.26, -0.06,  1.44,-27.72,  3.57,135.57, -2.46,-10.32,-36.51, 97.80,121.04
Uptime 00:00:20, 23.09,  0.19,  0.12,  0.64,-52.33, 31.06,132.85, 10.50, 16.53, 30.84,-60.05,995.32; 30.15,  0.25, -0.44,  0.70, 70.48, 22.64,-19.77,-30.19, 16.94,-27.68, 98.30,118.54
Uptime 00:00:20, 23.14, -0.24,  0.20,  1.07,  3.19, 20.02, 42.50, 10.14,-12.37, 30.83,-56.07,1000.80; 30.15,  0.12,  0.13,  1.33, -9.69, -4.46,-74.89,  5.67,  5.24,-28.24, 95.67,108.88
Uptime 00:00:20, 23.14, -0.44,  0.21,  0.81,-15.72,-30.75,-49.24, 12.74,-27.69, 28.53,-58.19,994.60; 30.15, -0.23, -0.28,  0.82, 35.91, 52.97,  6.90,-18.37,-14.90,-23.61,100.59,109.75
Uptime 00:00:20, 23.09, -0.07,  0.17,  1.32, 40.64,-56.52, 54.59,  7.29, -3.20, 33.12,-63.94,1001.48; 30.25, -0.33, -0.19,  1.35, -5.25,-12.14, 91.80, -7.72,-13.80,-23.94, 97.36,121.32
Uptime 00:00:20, 23.24,  0.05,  0.26,  0.72,-29.49, 51.15,147.04, 20.03,  3.49, 29.16,-56.32,1020.30; 30.25, -0.03, -0.30,  0.56, 57.39, 31.63,-63.91,-27.79, -2.93,-16.81, 99.44,113.14
Uptime 00:00:21, 23.09, -0.30,  0.14,  1.24, -8.58, 28.28,-11.27,  6.25,-13.54, 27.64,-51.43,1018.88; 30.25, -0.01, -0.52,  1.45,-47.80, 33.34,-95.18,-19.68, -0.32,-22.77,101.57,101.15
Uptime 00:00:21, 23.14, -0.35,  0.30,  0.72,-19.97,-34.96,-107.94, 20.15,-24.42, 25.03,-54.23,1005.28; 30.25, -0.08, -0.16,  1.20, 15.24, 21.07, 31.24, -7.74, -3.90,-20.59,102.22,105.08
Uptime 00:00:21, 23.09,  0.41,  0.12,  1.39,-61.74,-69.89, 67.92,  4.64, 16.41, 16.88,-62.24,1013.97; 30.25,  0.06, -1.14,  1.50,-41.54,-56.49, 40.87,-37.19,  1.72,-26.13, 93.05,110.32
Uptime 00:00:21, 23.19, -0.28, -0.22,  0.79, 88.44, 20.74,150.17,-14.67,-18.97, 27.17,-58.05,1032.89; 30.25, -0.09, -0.45,  1.49,  5.00,-25.03,-98.02,-16.88, -3.43,-25.33, 88.17, 97.97
Uptime 00:00:21, 23.09, -0.65,  0.16,  0.98,-20.87,-17.08, 14.43,  7.83,-33.09, 24.20,-58.34,1034.71; 30.15, -0.28, -0.69,  1.32,  2.42,-13.57, -0.49,-27.17,-10.56,-25.07, 84.94, 97.90
Uptime 00:00:21, 23.09,  0.04, -0.18,  1.12, 22.51,-27.13, 19.59, -9.07,  2.09, 26.38,-60.64,1037.24; 30.29, -0.29,  0.12,  1.22, 16.20, 62.68,151.94,  5.32,-13.24,-22.41, 91.43,117.50
Uptime 00:00:21, 23.05,  0.20,  0.05,  0.84,-39.66, 34.03, 97.42,  3.07, 13.40, 21.02,-55.50,1049.51; 30.20,  0.38, -0.61,  0.44, 33.85, 50.52,-53.88,-46.09, 26.83,-18.71, 95.31,110.72
Uptime 00:00:21, 23.19, -0.28,  0.44,  1.00, 22.89, 20.61, 54.82, 23.00,-14.50, 23.93,-51.51,1056.53; 30.29,  0.16,  0.40,  1.35, -9.61, 27.36,-95.91, 16.44,  6.48,-19.21, 96.70, 98.44
Uptime 00:00:22, 23.14, -0.39, -0.18,  0.93, 22.80,-23.17,-53.82, -9.90,-22.27, 26.07,-52.90,1049.75; 30.29, -0.21, -0.46,  1.35,  9.51,  5.40, 53.16,-18.51, -8.57,-18.02, 95.61,105.14
Uptime 00:00:22, 23.09,  0.16,  0.52,  1.09,-29.60,-82.82, 58.17, 25.41,  7.61, 22.40,-62.22,1057.08; 30.29,  0.05, -0.49,  1.31,-56.10,-31.96, 72.82,-20.46,  1.89,-24.94, 89.74,114.24
Uptime 00:00:22, 23.14, -0.16, -0.23,  0.75, 60.05, 33.70,150.64,-16.77,-11.70, 29.50,-56.32,1077.26; 30.29, -0.36, -0.38,  1.54, 13.33,-66.80,-113.07,-13.45,-12.72,-22.95, 79.36, 98.98
Uptime 00:00:22, 23.14, -0.58, -0.10,  1.18, -7.85, 21.71, 17.27, -4.51,-26.04, 27.85,-51.99,1079.44; 30.34, -0.41, -0.92,  1.30,  3.73, 27.81,-62.49,-34.01,-14.52,-22.71, 81.50, 91.10
Uptime 00:00:22, 23.24, -0.08, -0.20,  0.93, 47.96,-79.23,-74.03,-12.01, -4.66, 32.98,-60.64,1070.11; 30.29, -0.16, -0.21,  1.40,  7.58, 54.23,151.95, -8.27, -6.29,-21.49, 86.69,110.25
Uptime 00:00:22, 23.19,  0.06,  0.18,  0.94,-41.31,-101.77,113.63, 10.68,  3.34, 27.31,-72.36,1084.77; 30.15,  0.93, -0.34,  1.20,-17.39,-27.90, 53.50,-12.76, 36.63,-23.51, 80.70,117.15
Uptime 00:00:22, 23.19,  0.11, -0.07,  1.07, 65.86, 59.54, 25.51, -3.95,  5.82, 34.82,-63.67,1087.99; 30.25, -0.13,  0.15,  1.30,-33.78,-34.54,-94.58,  6.67, -5.59,-27.08, 74.93,105.23
Uptime 00:00:22, 23.14, -0.34,  0.23,  0.89,-16.10,-57.72,-57.65, 13.76,-20.27, 32.41,-69.12,1080.72; 30.15, -0.25, -0.40,  0.74, 43.29, 42.33, -4.14,-26.89,-16.40,-21.73, 78.99,104.71
Uptime 00:00:23, 23.19,  0.74,  0.01,  1.46, -2.29,-121.16, 27.91,  0.19, 26.94, 31.47,-83.48,1084.29; 30.34, -0.06, -1.11,  1.54,-63.94, -2.09, 93.05,-35.93, -1.88,-30.03, 77.19,116.62
Uptime 00:00:23, 23.14,  0.33,  0.10,  0.64,-39.52, 69.86, 71.85,  8.05, 27.15, 26.13,-73.72,1093.35; 30.25,  0.47, -0.58,  0.72, 64.69, 28.20,-48.15,-34.16, 26.95,-22.13, 78.58,110.55
Uptime 00:00:23, 23.19, -0.08, -0.10,  1.45,  6.14, 88.74, 24.67, -3.75, -3.01, 26.30,-61.06,1096.50; 30.25,  0.43, -0.03,  1.32,-34.91,-63.65,-138.76, -1.22, 18.16,-26.09, 68.67, 92.79
Uptime 00:00:23, 23.19, -0.43,  0.01,  0.86,-34.29, 79.74, 11.37,  0.66,-26.36, 21.55,-49.46,1097.94; 30.25, -0.36, -0.39,  1.16, 41.79, 20.49,-70.86,-17.98,-16.31,-20.77, 70.15, 83.86
Uptime 00:00:23, 23.09, -0.02, -0.16,  1.08, 13.25,-73.48,-13.94, -8.63, -1.24, 22.58,-57.52,1096.18; 30.44, -0.40, -0.20,  1.19,-59.54, 79.02, 45.05, -9.00,-18.28,-27.88, 78.87, 89.54
Uptime 00:00:23, 23.28,  0.19,  0.08,  1.05,  0.77,-65.57, 69.25,  4.28, 10.23, 22.31,-64.80,1105.04; 30.34,  0.16, -0.65,  1.14, 30.48,-41.38, 33.80,-29.32,  6.92,-24.09, 71.96, 93.87
Uptime 00:00:23, 23.14, -0.14,  0.23,  0.78, 53.12, 53.45,202.84, 16.34,-10.08, 28.75,-56.70,1130.60; 30.34, -0.40, -0.22,  1.40,-53.14, -3.96,-48.95, -8.77,-15.76,-30.34, 70.35, 87.70
Uptime 00:00:24, 23.19, -0.54,  0.05,  1.18,  8.87,-10.59, 79.40,  2.16,-24.76, 29.32,-56.38,1140.61; 30.39, -0.36, -0.83,  1.46,  9.45, 46.32,-45.48,-28.91,-12.18,-29.15, 74.91, 81.97
Uptime 00:00:24, 23.24, -0.21, -0.14,  0.71, 45.07,-70.59,-15.10,-10.81,-16.08, 34.17,-63.79,1138.67; 30.39, -0.54, -0.22,  1.29,-28.78,  9.60,131.97, -9.08,-22.63,-32.36, 75.06, 98.86
Uptime 00:00:24, 23.19,  0.46,  0.35,  1.19, 18.63, -5.30, 76.96, 15.31, 20.28, 36.09,-63.57,1148.37; 30.25,  0.09, -0.46,  1.53, 34.71,  0.30, 90.96,-16.76,  3.38,-27.76, 73.53,110.32
Uptime 00:00:24, 23.28, -0.26,  0.10,  0.58, 36.93, 91.41,157.22,  9.34,-23.88, 40.12,-50.54,1168.18; 30.29, -0.13, -0.17,  1.48,-51.65, 21.52,-109.79, -6.44, -5.09,-33.71, 74.82, 96.49
Uptime 00:00:24, 23.14, -0.38,  0.53,  1.14,-83.37,-60.32, -0.96, 24.03,-16.77, 29.34,-56.76,1168.06; 30.39, -0.34, -0.57,  1.09, 21.99, 30.93, 66.09,-26.70,-15.47,-30.81, 77.51,104.95
Uptime 00:00:24, 23.19,  0.47, -0.50,  1.68, 50.48,-96.26, -1.13,-15.84, 14.99, 34.67,-67.81,1167.92; 30.39, -0.23, -0.59,  1.32,-114.53, 62.52, 98.93,-23.63, -9.18,-44.81, 83.87,117.42
Uptime 00:00:24, 23.24,  0.25,  0.18,  0.45,-52.93, 69.53,130.49, 18.79, 26.70, 27.71,-58.26,1184.62; 30.39,  0.14, -0.43,  0.43, 56.80,  9.45,-67.16,-44.09, 12.84,-37.67, 83.12,108.82
Uptime 00:00:24, 23.28, -0.71, -0.03,  1.61,106.44, 21.15, 72.08, -0.93,-23.83, 40.28,-54.01,1193.70; 30.39,  0.14,  0.01,  1.01,-123.52,-53.99,-51.95,  0.74,  7.67,-52.16, 74.64,102.27
Uptime 00:00:25, 23.24, -0.19,  0.23,  0.35,-65.34,-91.42,-92.75, 29.74,-24.80, 32.00,-63.72,1182.01; 30.39, -0.25, -0.06,  1.12, 24.81, 56.07, 99.07, -2.88,-12.36,-48.11, 80.31,114.76
Uptime 00:00:25, 23.28,  0.52, -0.06,  1.30,-33.83, 13.80, 23.75, -2.56, 21.82, 27.07,-61.15,1185.05; 30.39,  0.14, -0.90,  1.45, 34.52, -8.80, 70.98,-31.55,  4.69,-43.44, 77.51,123.84
Uptime 00:00:25, 23.24, -0.12, -0.14,  0.70, 35.12, 35.62,113.71,-11.23, -9.49, 30.64,-55.34,1199.38; 30.39,  0.33, -0.37,  1.15,-17.75,  7.37,-108.82,-17.23, 15.16,-45.11, 76.57,110.13
Uptime 00:00:25, 23.28, -0.52,  0.15,  1.25, 30.73,-21.98, 44.76,  6.17,-22.58, 33.94,-56.50,1205.02; 30.25, -0.25, -0.31,  1.46,-32.64,-12.89,-36.64,-11.84, -9.37,-48.48, 73.63,105.51
Uptime 00:00:25, 23.28,  0.01, -0.22,  0.86, 55.39,-72.68,-36.28,-14.23,  0.38, 39.93,-64.49,1200.38; 30.34, -0.37, -0.20,  1.29,-14.97, 46.50,136.40, -8.35,-15.80,-49.55, 78.31,122.97
Uptime 00:00:25, 23.24,  0.23,  0.31,  1.04,-12.29, -7.23, 45.45, 16.16, 11.76, 37.93,-64.33,1206.10; 30.34,  0.30, -0.61,  1.36, 26.19,-39.50, 33.69,-23.56, 11.36,-45.80, 71.64,127.22
Uptime 00:00:25, 23.19, -0.17,  0.02,  1.03, 65.51, 75.09, 96.47,  1.01, -9.44, 45.29,-53.58,1218.26; 30.34, -0.50, -0.22,  1.47,-27.65,  4.30,-185.13, -7.90,-18.72,-48.46, 71.11,103.89
Uptime 00:00:25, 23.14, -0.29,  0.53,  0.98,-58.87,-63.02,-20.34, 27.48,-14.49, 37.54,-60.13,1215.66; 30.44,  0.05, -0.67,  0.56, 81.90, 92.12, 66.38,-49.62,  3.02,-38.21, 81.18,112.39
Uptime 00:00:26, 23.28,  0.55, -0.26,  1.83, 31.68,-65.95, 43.22, -7.65, 16.45, 40.58,-67.46,1221.14; 30.44, -0.06, -0.92,  1.78,-43.20, 30.33,120.92,-27.42, -1.67,-43.37, 83.37,127.74
Uptime 00:00:26, 23.33, -0.09, -0.21,  0.21, 20.34, 95.07,173.62,-43.15,-17.10, 41.42,-54.03,1243.02; 30.34,  0.10, -0.27,  0.61, 45.55, 20.20,-111.01,-23.47,  8.59,-37.34, 84.02,113.76
Uptime 00:00:26, 23.19, -0.53,  0.91,  1.29,-25.95,-30.49,-40.51, 32.93,-18.53, 38.00,-56.41,1237.84; 30.34, -0.23, -0.61,  1.58,  6.37, 30.32, 15.43,-20.96, -7.56,-36.22, 86.30,115.73
Uptime 00:00:26, 23.24,  0.14, -0.25,  0.89,-10.78,-44.62, 34.96,-15.51,  8.29, 35.59,-60.95,1242.24; 30.53, -0.08, -0.12,  1.53,-67.10,  3.30,124.56, -4.52, -2.90,-43.87, 85.04,131.43
Uptime 00:00:26, 23.24,  0.02,  0.38,  0.89,-65.97, 57.97,178.78, 23.37,  1.01, 27.08,-52.48,1265.12; 30.44,  0.35, -0.59,  0.42, 51.42,-21.19,-68.90,-47.04, 26.16,-37.48, 80.15,122.61
Uptime 00:00:26, 23.19, -0.32, -0.09,  1.38, 10.60, 21.27, 30.66, -3.44,-13.15, 27.77,-48.54,1268.99; 30.39, -0.14, -0.43,  1.53,-67.13,-17.13,-121.07,-15.62, -4.87,-45.33, 76.53,107.35
Uptime 00:00:26, 23.24, -0.28,  0.03,  0.62,-28.23,-42.81,-68.51,  2.36,-24.22, 23.78,-52.37,1260.36; 30.34, -0.16, -0.18,  1.05, 37.00, 72.56, 70.85, -9.45, -8.34,-40.05, 84.13,116.28
Uptime 00:00:26, 23.38,  0.32,  0.20,  1.23,-52.93,-61.80, 79.05,  8.94, 14.27, 16.84,-59.36,1270.47; 30.34,  0.17, -0.79,  1.08,-103.78,-21.64, 64.15,-35.82,  7.33,-52.98, 79.59,124.49
Uptime 00:00:27, 23.24, -0.13,  0.08,  0.98, 31.07, 16.95,159.10,  4.84, -7.30, 20.47,-55.92,1290.68; 30.39, -0.51,  0.84,  0.99, 63.76,-60.43,-103.62, 37.03,-21.40,-43.25, 70.90,111.33
Uptime 00:00:27, 23.24, -0.59, -0.16,  1.24, 25.70,-21.14, -4.43, -6.46,-25.20, 23.10,-56.91,1290.12; 30.39, -0.45, -1.12,  1.90,-45.36,-11.79, 67.40,-29.83,-11.47,-48.58, 68.26,119.82
Uptime 00:00:27, 23.19, -0.01,  0.25,  0.12,-25.85,-57.74, 68.18, 64.78, -1.44, 20.70,-62.98,1298.85; 30.39, -0.10, -0.36, -0.02,-31.34,-65.13, 53.18,-74.24,-15.58,-45.16, 62.01,126.63
Uptime 00:00:27, 23.28,  0.20, -0.02,  1.56, 22.61, 94.72,194.59, -0.89,  7.37, 23.06,-50.18,1323.37; 30.39, -0.06,  0.42,  1.96, 84.26,-25.24,-112.84, 12.07, -1.67,-33.61, 57.69,112.41
Uptime 00:00:27, 23.38, -0.56, -0.69,  1.28,110.90, 56.57,-54.69,-26.19,-21.22, 35.87,-41.71,1316.42; 30.39, -1.14, -0.81,  1.20,-119.72, 65.83, 58.18,-26.17,-38.28,-48.36, 65.49,119.80
Uptime 00:00:27, 23.24, -0.28,  0.75,  0.42,-89.88,-107.72, 95.54, 55.88,-18.22, 25.00,-54.02,1328.65; 30.48, -0.22, -0.87,  0.36, 71.12,-42.54, 48.93,-64.14,-13.29,-39.76, 59.11,126.07
Uptime 00:00:27, 23.38,  0.52, -0.33,  1.62,109.68, 16.99,173.95,-10.93, 17.37, 37.83,-51.19,1350.57; 30.39, -0.05, -0.76,  2.27, 26.57,-59.74,-124.50,-18.44, -1.23,-36.05, 50.58,110.38
Uptime 00:00:27, 23.24, -0.48, -0.00, -0.31,-88.84, 67.12, -5.92, -0.03,-56.90, 48.82,-38.83,1349.77; 30.44, -0.59, -0.25,  0.28,-31.39, 94.43, 24.69,-21.26,-57.64,-39.91, 63.21,113.71
Uptime 00:00:28, 23.28,  0.44,  0.26,  1.52,-35.88,-134.21,-114.63,  9.31, 15.92, 43.57,-55.07,1335.21; 30.44,  0.08, -0.15,  2.01, 34.20, 10.29,107.47, -4.32,  2.22,-34.94, 63.18,127.36
Uptime 00:00:28, 23.28,  0.42, -0.86,  1.16,136.64, -7.11, 97.36,-34.88, 16.08, 62.47,-55.17,1347.48; 30.34, -0.11, -0.93,  0.55,-11.71, 15.34,-51.21,-58.89, -5.68,-36.86, 63.93,120.91
Uptime 00:00:28, 23.33, -0.39,  0.90,  0.98,-56.27,119.07, 42.18, 40.72,-16.24, 54.98,-38.81,1352.88; 30.44,  0.26, -0.39,  1.21, 23.09, 61.52,-93.37,-17.50, 11.67,-33.58, 70.13,108.95
Uptime 00:00:28, 23.28, -1.03, -0.83,  0.73, 94.55,-124.06, 62.49,-33.43,-42.96, 68.48,-52.49,1360.75; 30.44, -0.56, -1.09,  0.79, 13.85,-28.87,117.21,-48.32,-22.52,-32.16, 65.62,123.72
Uptime 00:00:28, 23.33,  0.46,  0.79,  1.41,-23.54,-100.30, 27.66, 28.22, 15.82, 64.77,-64.14,1364.24; 30.44, -0.60, -0.76,  1.38, 36.64,-19.67,140.37,-26.62,-20.87,-27.53, 62.29,141.41
Uptime 00:00:28, 23.28,  0.37, -0.34,  0.76,-39.83, 18.55, 56.78,-21.77, 23.72, 58.04,-61.01,1371.50; 30.44,  0.30, -0.47,  1.03, 62.23, 31.10, 17.04,-23.64, 14.89,-19.64, 64.65,143.59
Uptime 00:00:28, 23.24, -0.05,  0.14,  0.92, 63.15,113.32,136.03,  8.77, -3.39, 64.86,-45.73,1388.64; 30.34, -1.04, -0.23,  1.53,-38.07,-61.44,-116.76, -7.11,-33.95,-24.09, 56.45,128.88
Uptime 00:00:28, 23.28, -0.36,  0.12,  1.19,-92.18,-21.19,-20.87,  5.63,-16.79, 52.20,-47.11,1385.99; 30.53,  0.15, -0.56,  1.08,-14.16,103.81,-116.26,-27.20,  6.80,-25.91, 68.00,114.23
Uptime 00:00:29, 23.24, -0.42,  0.08,  0.74, 13.33, -9.89,  6.27,  5.64,-29.13, 52.94,-46.83,1386.80; 30.48, -0.09, -0.18,  1.13, 43.84, 10.20,  8.99, -9.22, -4.46,-20.03, 68.02,115.39
Uptime 00:00:29, 23.33, -0.40, -0.00,  1.03,-37.94,-81.23, -5.99, -0.14,-21.07, 47.19,-55.50,1386.04; 30.44, -0.39, -0.22,  1.15,-30.41,100.18, 44.08,-10.28,-18.31,-23.59, 79.40,120.94
Uptime 00:00:29, 23.38,  0.01,  0.10,  1.04, -8.00,-19.34, 27.40,  5.43,  0.71, 45.35,-56.85,1389.58; 30.58, -0.06, -0.82,  1.29, 29.73,-38.17, 52.78,-32.49, -2.10,-20.01, 73.03,127.75
Uptime 00:00:29, 23.33, -0.11,  0.23,  0.88, 47.41, 24.17,138.73, 14.73, -6.84, 50.59,-52.59,1407.06; 30.44, -0.16, -0.12,  1.08,-37.91, 20.20,-12.55, -6.53, -8.12,-24.42, 74.22,126.17
Uptime 00:00:29, 23.38, -0.37,  0.08,  1.19,-29.01,  0.55, -4.11,  3.63,-17.26, 46.07,-51.13,1406.54; 30.39, -0.09, -0.70,  1.27,  2.16, 20.20,-132.76,-28.81, -3.71,-24.24, 75.31,109.44
Uptime 00:00:29, 23.33, -0.29,  0.20,  0.82, -7.13,-21.48,-20.95, 13.08,-18.91, 44.51,-52.42,1403.86; 30.48, -0.25,  0.04,  0.84, 63.91, 12.15,  0.38,  2.92,-16.28,-15.68, 75.65,109.49
Uptime 00:00:29, 23.38, -0.04, -0.04,  1.21,-10.78,-17.37, 37.94, -2.09, -2.02, 42.25,-53.48,1408.64; 30.58, -0.38, -0.18,  1.26,-28.53, 19.89, 99.83, -7.84,-16.73,-19.05, 76.93,122.07
Uptime 00:00:29, 23.42, -0.04,  0.26,  0.77, 10.23,  1.79, 80.46, 18.29, -3.09, 43.04,-52.12,1418.78; 30.48,  0.16, -0.27,  1.12, 26.86, -4.58, 13.56,-13.66,  7.93,-15.62, 74.66,123.78
Uptime 00:00:30, 23.28, -0.29, -0.05,  1.33, 15.31, 11.01, 85.13, -2.15,-12.44, 44.07,-49.44,1429.76; 30.48,  0.07,  0.07,  1.28, 24.95,-30.52,-127.37,  2.91,  2.89,-12.10, 69.25,107.35
Uptime 00:00:30, 23.28, -0.33,  0.34,  0.97, -7.31, 16.90, 11.72, 18.15,-18.07, 42.65,-46.00,1431.24; 30.48, -0.37, -0.32,  1.17, 16.16, 39.89,-37.53,-14.52,-17.23,-10.15, 73.14,102.62
Uptime 00:00:30, 23.33, -0.24, -0.02,  1.17, 10.05,-79.63, 25.37, -0.97,-11.58, 43.02,-54.68,1434.43; 30.48, -0.16, -0.04,  1.38, -6.13, 35.94,135.86, -1.56, -6.68,-10.74, 76.25,119.74
Uptime 00:00:30, 23.28,  0.08,  0.09,  0.69,-43.28, 20.02,110.93,  7.60,  6.37, 36.88,-51.21,1448.63; 30.53,  0.32, -0.27,  0.57, 38.63, 15.05, -4.81,-22.71, 26.69, -6.13, 76.08,119.12
Uptime 00:00:30, 23.33, -0.14,  0.14,  1.30, 43.31, 15.47, 16.43,  6.04, -6.28, 41.61,-48.15,1450.70; 30.58,  0.05, -0.20,  1.99, 19.50, 13.78,-76.47, -5.74,  1.54, -3.72, 76.23,109.48
Uptime 00:00:30, 23.38, -0.37,  0.27,  0.81,-54.87,-37.49,-72.61, 16.90,-23.53, 34.23,-51.42,1441.41; 30.53,  0.04, -0.29,  0.53, 63.76, 26.12, 33.39,-28.43,  3.39,  3.79, 77.91,113.76
Uptime 00:00:30, 23.42,  0.10,  0.20,  1.28, 30.67,-74.53, 47.08,  8.78,  4.25, 37.51,-59.68,1447.34; 30.44, -0.23, -0.37,  1.27,-29.42,-27.47,106.34,-16.02, -9.87, -0.24, 73.16,127.16
Uptime 00:00:30, 23.38,  0.04,  0.22,  0.66,-18.12, 28.61,142.81, 18.69,  3.49, 34.90,-55.02,1465.33; 30.53, -0.07, -0.29,  0.67, 36.43, 25.84,-36.00,-23.56, -5.32,  3.79, 74.99,122.62
Uptime 00:00:31, 23.33, -0.56,  0.08,  1.18,  5.15,  3.41, 30.35,  3.51,-25.23, 34.91,-52.99,1469.22; 30.53, -0.09, -0.76,  1.47,-16.16, 33.59,-66.05,-27.19, -3.11,  1.14, 77.77,114.17
Uptime 00:00:31, 23.33, -0.14,  0.20,  0.65,-32.59,-49.68,-64.18, 16.55,-11.77, 30.52,-57.83,1461.13; 30.53, -0.41, -0.20,  1.14,-18.56, 17.81, 62.67, -9.37,-19.59, -1.36, 78.80,122.06
Uptime 00:00:31, 23.38,  0.41,  0.23,  1.37,-28.00, 11.09, 40.55,  9.31, 16.28, 26.64,-55.63,1466.24; 30.53,  0.12, -0.45,  1.60, 19.38,-16.86, 76.14,-15.60,  3.97,  0.75, 75.07,131.66
Uptime 00:00:31, 23.42, -0.36, -0.31,  0.72, 23.30,-29.14, 63.07,-21.24,-24.78, 28.61,-57.67,1474.31; 30.53,  0.18, -0.20,  1.14,-28.35, 31.81,-142.58, -9.72,  8.88, -3.02, 77.38,113.41
Uptime 00:00:31, 23.38, -0.37,  0.55,  1.05,-32.91, -0.32, -5.68, 26.46,-17.29, 24.50,-56.21,1473.60; 30.53, -0.26, -0.24,  1.21, 16.43, 39.65, 13.14,-11.14,-11.88, -1.15, 80.96,115.06
Uptime 00:00:31, 23.33,  0.01, -0.14,  1.24, 40.00,-74.21, 41.14, -6.21,  0.56, 28.82,-64.27,1478.78; 30.62, -0.04, -0.09,  1.39,-60.12,-14.92, 74.53, -3.63, -1.48, -8.62, 77.53,124.45
Uptime 00:00:31, 23.38, -0.07,  0.10,  0.49,-30.38, 30.43,145.48, 10.90, -7.63, 24.66,-59.01,1497.40; 30.53,  0.05, -0.57,  0.59, 21.41,-25.65,-83.13,-44.08,  3.55, -6.65, 72.69,113.81
Uptime 00:00:31, 23.47, -0.62,  0.07,  1.69, 53.88, 29.56, 41.74,  2.22,-20.00, 30.86,-53.78,1502.66; 30.58, -0.13, -0.83,  1.64,-57.97, 21.69,-61.99,-26.76, -4.04,-14.21, 74.00,106.00
Uptime 00:00:32, 23.28,  0.00, -0.25,  0.68, 20.81,-64.78,-28.96,-19.87,  0.08, 32.46,-60.83,1498.95; 30.53, -0.72, -0.15,  1.27,  6.00, 66.10,148.21, -5.72,-29.34,-13.28, 81.40,124.97
Uptime 00:00:32, 23.33,  0.27,  0.29,  0.90,-55.30, 20.26, 58.18, 17.18, 15.72, 25.32,-57.43,1506.28; 30.58,  0.23, -0.35,  1.19, -1.05,-19.12, 22.05,-16.06, 10.62,-13.47, 77.20,127.75
Uptime 00:00:32, 23.33, -0.17, -0.07,  1.04, 32.96, 32.57, 33.02, -3.64, -9.48, 28.81,-52.07,1510.45; 30.48, -0.36,  0.15,  1.48,-17.58, 19.22,-180.35,  5.74,-13.53,-15.26, 78.30,105.03
Uptime 00:00:32, 23.38, -0.42,  0.23,  0.78,-71.75,-38.62,-119.85, 14.41,-27.21, 19.52,-55.33,1495.10; 30.58,  0.15, -0.52,  0.53, 51.82, 60.55, 44.53,-43.35, 11.56, -9.32, 84.09,110.73
Uptime 00:00:32, 23.42, -0.04,  0.26,  1.41, 23.13,-29.69, 69.72, 10.56, -1.55, 22.22,-57.88,1503.96; 30.44, -0.18, -0.56,  1.51,-53.39,-61.47, 54.53,-20.18, -6.41,-16.18, 74.89,117.65
Uptime 00:00:32, 23.47, -0.11,  0.00,  0.61, 13.45, 12.11,203.27,  0.40,-10.49, 23.45,-55.02,1529.57; 30.58,  0.12, -0.38,  0.99, 24.74, 29.83,-77.34,-21.09,  6.38,-13.22, 76.95,107.91
Uptime 00:00:32, 23.42, -0.62,  0.20,  1.20, 14.06, 33.99, 14.21,  8.49,-26.79, 24.91,-49.12,1531.39; 30.67, -0.42, -0.89,  1.53,-43.46, 43.97,-49.66,-29.30,-13.30,-19.00, 81.19,101.55
Uptime 00:00:33, 23.33, -0.08, -0.31,  0.97, 14.40,-38.24,-58.28,-17.86, -4.43, 25.84,-52.77,1524.05; 30.67, -0.50, -0.37,  1.65, 14.31, 89.28,153.02,-12.11,-16.31,-17.09, 90.92,120.83
Uptime 00:00:33, 23.47,  0.19,  0.21,  1.11,-23.72, 10.02, 63.56, 10.67,  9.68, 22.60,-50.67,1532.06; 30.58,  0.29, -0.50,  1.21, 14.58,-30.02, 13.34,-21.75, 12.42,-15.38, 85.14,122.51
Uptime 00:00:33, 23.38, -0.26,  0.12,  0.97, 33.91, -1.08, 57.66,  6.72,-14.78, 26.54,-49.50,1539.44; 30.58, -0.29, -0.05,  1.32,  4.54,-12.14,-169.30, -2.06,-12.28,-14.55, 82.16,100.84
Uptime 00:00:33, 23.38, -0.40,  0.50,  0.91,-62.18,  0.96,-34.75, 26.58,-21.06, 18.86,-47.97,1535.06; 30.62, -0.17, -0.34,  0.73, 41.10, 83.66,  4.96,-24.61,-11.62, -9.67, 91.08,101.47
Uptime 00:00:33, 23.42,  0.07, -0.01,  1.52, 28.00,-67.14, 44.35, -0.49,  2.73, 21.93,-55.36,1540.65; 30.62, -0.26, -0.39,  1.52,-45.16,  1.65, 66.11,-14.14, -9.44,-15.34, 89.65,109.80
Uptime 00:00:33, 23.47, -0.18,  0.07,  0.50,-19.51, 24.15,213.19,  7.39,-19.98, 19.08,-50.68,1569.21; 30.62,  0.16, -0.31,  0.80,  5.00,-24.66,-64.87,-20.90, 10.23,-14.79, 84.42,101.10
Uptime 00:00:33, 23.42, -0.80,  0.36,  1.21, -3.63,  2.46, 38.23, 13.78,-32.25, 18.53,-48.72,1574.03; 30.62, -0.06, -0.75,  1.64,-21.69, 11.80,-14.84,-24.68, -1.85,-17.67, 84.22, 99.24
Uptime 00:00:33, 23.47,  0.17, -0.58,  0.67, 28.44,-57.36, 24.11,-40.09, 11.19, 20.92,-55.16,1577.12; 30.53, -0.49, -0.01,  1.27,-19.08, 39.69,194.21, -0.29,-21.04,-19.72, 87.94,124.09
Uptime 00:00:34, 23.38,  0.21,  0.28,  0.74,-59.31, 14.45,112.55, 19.89, 14.85, 13.58,-52.57,1591.30; 30.62,  0.54, -0.49,  1.09, 20.34,-19.53, -3.89,-22.10, 24.48,-17.25, 83.28,123.60
Uptime 00:00:34, 23.42, -0.29, -0.06,  0.98, 59.13, 12.48, 39.86, -3.40,-16.36, 20.54,-49.65,1596.32; 30.53,  0.05,  0.04,  1.56,-11.42,-17.24,-151.65,  1.57,  1.92,-18.29, 79.45,104.50
Uptime 00:00:34, 23.52, -0.51,  0.21,  0.68,-47.89,-28.64,-39.97, 13.64,-35.54, 14.39,-51.54,1591.20; 30.62, -0.26, -0.56,  0.89, 56.69, 29.54, 11.66,-31.31,-13.70,-11.44, 81.84,105.99
Uptime 00:00:34, 23.42,  0.09, -0.05,  1.17, 88.89,-48.70, 38.69, -2.54,  4.17, 25.03,-56.61,1596.08; 30.53, -0.42, -0.17,  1.52,-51.26, 35.51,121.47, -6.02,-15.39,-17.66, 84.89,121.29
Uptime 00:00:34, 23.38,  0.17,  0.07,  0.75,-34.70, 36.38,103.72,  5.28, 12.97, 20.35,-51.24,1609.15; 30.62,  0.27, -0.50,  0.77, 48.86, 33.17,  2.89,-31.34, 16.46,-11.90, 86.96,121.66
Uptime 00:00:34, 23.42, -0.61,  0.23,  1.16, -0.65, 19.22,114.90, 10.06,-27.07, 20.06,-47.26,1623.85; 30.58,  0.13,  0.13,  1.19, 24.49,-53.30,-81.22,  6.33,  6.42, -8.46, 78.41,111.26
Uptime 00:00:34, 23.38, -0.04,  0.20,  0.64, -2.79,-219.68,-183.33, 17.49, -3.05, 19.67,-73.38,1600.75; 30.62, -0.25, -0.63,  0.76, 22.87, 38.81, 93.27,-38.29,-14.38, -6.23, 81.92,123.01
Uptime 00:00:34, 23.52,  0.54,  0.17,  1.02,-33.94, 17.13,  6.27,  8.52, 27.60, 15.25,-70.35,1601.55; 30.58, -0.45, -0.33,  1.39,-81.95,-42.51, 92.85,-12.88,-17.35,-16.49, 75.38,134.71
Uptime 00:00:35, 23.52,  0.49,  0.16,  0.81,-22.94, 11.06, 49.05,  9.62, 30.94, 12.26,-68.18,1607.82; 30.58,  0.76, -0.56,  0.92, 56.97,  6.06,-26.95,-25.30, 35.02, -9.52, 73.93,131.26
Uptime 00:00:35, 23.47,  0.01,  0.08,  1.36, -1.51, 52.84, 67.11,  3.44,  0.60, 11.90,-60.30,1616.28; 30.58, -0.19, -0.33,  1.30,-56.96,-57.61,-146.95,-14.14, -7.96,-16.64, 65.50,112.75
Uptime 00:00:35, 23.42, -0.12,  0.17,  0.94,-14.70, -4.79,-82.44,  9.93, -7.24, 10.02,-59.55,1605.73; 30.58, -0.11, -0.50,  1.07, 60.58, 59.65,-37.47,-25.07, -5.13, -9.21, 71.77,107.95
Uptime 00:00:35, 23.38, -0.21, -0.43,  0.90,  2.20,  2.77, 73.45,-25.18,-12.08,  9.58,-57.78,1614.98; 30.58, -0.26, -0.01,  1.12,-70.49, 12.73, 26.14, -0.25,-12.84,-17.74, 72.17,111.25
Uptime 00:00:35, 23.52,  0.32,  0.10,  0.99, 25.94, 12.81, 83.39,  5.33, 17.79, 12.70,-55.39,1625.49; 30.67,  0.02, -0.51,  1.21, 41.87,-40.34, 10.40,-23.03,  0.80,-12.67, 65.73,112.56
Uptime 00:00:35, 23.38, -0.31, -0.16,  0.99, 33.10, 46.51,176.49, -8.64,-17.08, 16.43,-48.11,1648.08; 30.58, -0.10, -0.30,  1.26,-15.42,-26.57,-132.21,-13.25, -4.38,-14.62, 61.17, 95.63
Uptime 00:00:35, 23.52, -0.23,  0.20,  0.96, -5.10,-12.72, 65.68, 11.64,-13.30, 15.70,-48.45,1656.35; 30.58, -0.23, -0.46,  1.37,  4.78,102.23,  9.13,-18.15, -9.14,-14.10, 72.75, 96.78
Uptime 00:00:35, 23.47, -0.21, -0.39,  0.84, 58.26,-30.93, 30.17,-23.89,-12.98, 22.16,-51.07,1660.19; 30.67, -0.29, -0.35,  1.31,-25.57, 22.76,188.43,-14.70,-11.85,-17.29, 74.36,120.71
Uptime 00:00:36, 23.38,  0.27,  0.35,  1.17, -7.65, 16.55, 87.54, 16.23, 12.44, 21.08,-48.21,1671.48; 30.62,  0.05, -0.46,  1.37, -4.65,  0.73, 58.21,-18.53,  1.93,-17.90, 72.93,128.22
Uptime 00:00:36, 23.42, -0.34, -0.01,  1.16, -0.14,-10.33, 94.41, -0.26,-16.37, 20.63,-48.19,1683.37; 30.62, -0.15, -0.06,  1.17, 30.89,-15.22,-131.94, -2.81, -7.26,-13.79, 69.74,111.60
Uptime 00:00:36, 23.47, -0.27,  0.63,  1.10,-40.56,-20.96,-55.12, 29.09,-12.07, 15.79,-49.58,1676.43; 30.62, -0.20, -0.45,  0.64, 36.87, 36.61, 37.53,-34.13,-14.15, -9.64, 73.15,116.33
Uptime 00:00:36, 23.52,  0.18, -0.04,  1.50, 12.29,-55.46, 53.19, -1.36,  6.98, 16.99,-55.68,1683.24; 30.53, -0.19, -0.47,  1.50,-48.45,  6.17, 92.18,-17.35, -6.72,-15.87, 72.59,128.13
Uptime 00:00:36, 23.38, -0.10,  0.02,  0.58,-18.91, 28.87,191.86,  2.38, -9.52, 14.36,-50.81,1707.41; 30.62,  0.06, -0.39,  0.77, 16.35,-25.99,-58.55,-26.88,  4.25,-14.08, 67.85,120.75
Uptime 00:00:36, 23.42, -0.64,  0.08,  1.50, 35.62, 37.07, 38.27,  2.69,-22.99, 18.60,-44.69,1712.31; 30.62, -0.22, -0.86,  1.39,-57.98,  9.11,-34.87,-31.57, -7.73,-21.70, 67.79,116.28
Uptime 00:00:36, 23.56, -0.02, -0.34,  0.84, 55.83,-82.27,-31.27,-21.97, -1.05, 24.68,-53.93,1708.37; 30.72, -0.09, -0.09,  1.49,  4.08, 38.75,186.90, -3.62, -3.28,-20.83, 71.28,139.83
Uptime 00:00:36, 23.52,  0.22,  0.22,  0.87,-67.59, 38.75,136.40, 13.54, 13.81, 16.11,-48.34,1725.56; 30.72,  0.53, -0.78,  0.70, 22.63,  8.55,-37.56,-41.58, 26.69,-18.45, 70.38,135.10
Uptime 00:00:37, 23.42, -0.25,  0.14,  1.34, 63.68, 67.83,-24.83,  6.02,-10.63, 23.96,-38.59,1722.35; 30.62, -0.31, -0.06,  1.44,-38.87,-20.43,-137.33, -2.34,-11.96,-23.04, 66.63,117.39
Uptime 00:00:37, 23.47, -0.34, -0.06,  0.67,-30.72,-102.15,-152.37, -4.51,-26.89, 19.60,-49.89,1703.16; 30.62, -0.29, -0.31,  1.25, 41.79, 62.73, 50.99,-13.58,-12.52,-17.70, 73.29,123.81
Uptime 00:00:37, 23.52,  0.39,  0.29,  1.51,-12.49,-77.65, 40.37, 10.54, 14.10, 17.88,-58.76,1708.24; 30.72,  0.08, -1.16,  1.38,-33.83,-85.04, 41.02,-40.03,  2.57,-22.32, 61.27,128.98
Uptime 00:00:37, 23.47, -0.15, -0.35,  0.81, 62.57, 55.73,123.30,-22.83, -9.91, 24.91,-50.40,1724.02; 30.62,  0.02, -0.36,  1.31,  8.09,-29.16,-150.12,-15.57,  0.71,-21.17, 56.37,109.76
Uptime 00:00:37, 23.52, -0.67,  0.40,  1.13,-11.77,-21.63, 15.10, 16.81,-29.05, 23.30,-51.48,1725.93; 30.67, -0.20, -0.78,  1.37,-17.43, 39.78, 20.75,-29.60, -7.32,-23.49, 60.31,112.38
Uptime 00:00:37, 23.47,  0.30, -0.26,  0.97, 58.44,-57.92,-13.96,-14.59, 16.73, 29.76,-57.94,1724.17; 30.67, -0.13, -0.08,  1.11,-47.23, 16.79,127.72, -4.29, -6.44,-28.94, 61.30,128.47
Uptime 00:00:37, 23.52,  0.22,  0.34,  0.74,-32.04, 16.41, 36.81, 23.78, 15.10, 25.62,-55.02,1728.88; 30.67,  0.26, -0.41,  1.31, 24.89, -3.96,-15.34,-17.09, 10.83,-25.58, 59.36,126.51
Uptime 00:00:37, 23.47, -0.13,  0.06,  1.13,-25.62, 29.53, 46.04,  3.28, -6.65, 22.01,-50.14,1734.68; 30.62, -0.42, -0.10,  1.31,-37.66,-40.98,-155.39, -3.97,-17.71,-29.80, 53.47,106.93
Uptime 00:00:38, 23.47, -0.29,  0.42,  1.01,-68.65,-40.43,-71.41, 21.57,-14.81, 13.32,-53.95,1725.47; 30.67, -0.11, -0.52,  0.91, 41.77, 65.51, 42.12,-29.60, -5.95,-24.51, 60.80,112.36
Uptime 00:00:38, 23.52,  0.12, -0.13,  1.15, 25.25,-41.45, 41.48, -6.39,  6.13, 16.04,-58.12,1730.70; 30.67, -0.10, -0.63,  1.42,-22.32, 28.62, 82.69,-23.93, -3.54,-27.26, 63.19,122.78
Uptime 00:00:38, 23.56, -0.12,  0.37,  0.54,-55.33, 49.80,208.03, 33.48,-10.10,  9.56,-50.60,1756.91; 30.67,  0.20, -0.37,  0.79, 36.08,  2.58,-54.15,-24.35, 12.74,-22.74, 61.99,115.96
Uptime 00:00:38, 23.52, -0.60, -0.06,  1.25, 32.90, -4.01, 34.53, -2.53,-25.47, 13.44,-49.58,1761.33; 30.76, -0.26, -0.80,  1.58,-51.60, 22.39,-59.99,-26.66, -8.32,-29.29, 63.73,108.28
Uptime 00:00:38, 23.47, -0.27,  0.01,  0.59,-19.56,-45.07,-54.32,  0.94,-24.72, 10.78,-53.66,1754.48; 30.67, -0.42, -0.03,  1.07,  3.07, 29.25, 78.47, -1.72,-21.49,-28.36, 66.49,118.17
Uptime 00:00:38, 23.52,  0.43,  0.29,  1.33, -8.90,-15.88, 68.61, 11.85, 17.66,  9.70,-54.90,1763.13; 30.67,  0.10, -0.70,  1.53, 12.57,-41.94, 75.68,-24.56,  3.50,-26.73, 59.91,127.70
Uptime 00:00:38, 23.56, -0.47, -0.14,  0.97, 32.92, 16.25,133.05, -7.65,-25.59, 13.48,-51.26,1780.16; 30.53,  0.07, -0.18,  1.43,  7.64,  8.20,-163.10, -7.34,  2.80,-25.39, 59.69,106.83
Uptime 00:00:38, 23.56, -0.75,  0.36,  0.92,-23.74, 23.13, 10.27, 16.80,-37.04, 10.62,-46.63,1781.45; 30.62, -0.49, -0.60,  0.98,  4.08, 32.55,  2.53,-28.69,-23.22,-24.95, 62.98,107.15
Uptime 00:00:39, 23.56, -0.21,  0.02,  1.19, 54.03,-87.57, 54.95,  0.76,-10.07, 17.09,-56.31,1788.38; 30.67, -0.27, -0.02,  1.43, -8.50, 20.67,112.60, -0.88,-10.72,-25.52, 64.48,121.33
Uptime 00:00:39, 23.56, -0.10,  0.10,  0.56,-19.77, 62.83,219.82, 10.23, -9.72, 14.34,-46.68,1818.05; 30.62, -0.00, -0.24,  0.80, 60.74,  3.52,-43.31,-16.45, -0.06,-17.30, 63.66,115.48
Uptime 00:00:39, 23.52, -0.80,  0.10,  1.34, 14.98, 27.94, 63.49,  3.73,-30.82, 15.98,-41.68,1826.05; 30.62, -0.21, -0.73,  1.56,-47.91, 27.20,-74.67,-24.89, -6.80,-23.37, 65.88,106.08
Uptime 00:00:39, 23.56, -0.25, -0.28,  0.56, 14.14,-87.40,-13.15,-24.86,-21.50, 16.91,-51.21,1824.40; 30.72, -0.49, -0.27,  1.20, 16.87, 12.36,145.40,-11.84,-21.61,-21.06, 66.53,124.40
Uptime 00:00:39, 23.61,  0.33,  0.43,  1.01,-19.04, 38.32,140.85, 22.18, 17.00, 14.61,-45.68,1842.57; 30.72,  0.27, -0.56,  1.34, -2.01,-10.75,  0.76,-22.16, 10.62,-21.33, 63.62,124.50
Uptime 00:00:39, 23.47, -0.43, -0.09,  1.07, 25.36, 30.90, 37.56, -4.43,-21.93, 17.36,-40.51,1847.30; 30.72, -0.32,  0.15,  1.38,-26.29, 43.26,-107.33,  5.91,-12.91,-24.03, 67.95,110.97
Uptime 00:00:39, 23.61, -0.52,  0.28,  0.77,-51.14,-46.00,-92.17, 16.59,-32.37, 10.93,-44.82,1835.50; 30.72, -0.06, -0.65,  0.56, 62.87, 27.31, 49.40,-49.32, -3.71,-16.65, 70.09,117.30
Uptime 00:00:40, 23.61,  0.08,  0.11,  1.53, 37.77,-109.33, 43.33,  4.29,  3.02, 15.46,-57.49,1840.96; 30.72, -0.15, -0.44,  1.36,-53.13, 20.55, 83.36,-17.78, -6.03,-23.23, 71.35,127.80
Uptime 00:00:40, 23.61, -0.05,  0.06,  0.61,  1.56, 63.77,182.41,  5.51, -4.89, 15.45,-48.36,1863.94; 30.62,  0.18, -0.17,  0.93, 38.23, 12.49,-41.63, -9.85, 10.96,-18.25, 71.24,122.55
Uptime 00:00:40, 23.47, -0.89,  0.06,  1.16,  8.78, 13.65, 38.23,  2.33,-37.49, 16.29,-44.94,1868.84; 30.76, -0.09, -1.13,  1.53,-13.97, 21.59,-79.36,-36.47, -2.62,-20.36, 72.58,112.40
Uptime 00:00:40, 23.56, -0.43,  0.12,  0.53,-31.69,-97.80,-72.89, 10.03,-38.07, 12.25,-55.35,1859.65; 30.72, -0.20, -0.25,  1.32,  4.48, 19.30, 71.24,-10.66, -8.65,-19.62, 73.68,121.37
Uptime 00:00:40, 23.61,  0.50,  0.12,  1.45,-20.53,-57.89, 34.82,  4.32, 18.91,  9.56,-61.77,1864.04; 30.67, -0.02, -1.34,  1.59, 24.49,-32.38, 83.91,-40.23, -0.43,-17.00, 68.22,131.94
Uptime 00:00:40, 23.56, -0.13, -0.23,  0.31,  9.31,186.37,141.80,-34.54,-19.04,  9.85,-36.78,1882.19; 30.58,  0.12, -0.54,  0.99, 88.17,  3.16,-46.29,-28.23,  5.96, -6.17, 67.13,126.02
Uptime 00:00:40, 23.61, -1.94,  0.27,  0.93,-55.25,-77.08,132.84,  7.05,-63.48,  2.97,-44.29,1898.93; 30.76, -0.43, -0.74,  1.34,-13.51, 26.64,-112.73,-27.61,-15.78, -8.26, 69.39,111.81
Uptime 00:00:40, 23.56,  1.87,  0.08,  0.59,-135.75,226.74, -4.40,  2.42, 72.35,-13.81,-16.85,1898.37; 30.76,  0.95,  0.06,  1.03, 27.64,-39.36,129.53,  2.48, 42.50, -4.64, 62.30,128.13
Uptime 00:00:41, 23.66, -2.13,  0.39,  2.03, 15.94,-509.81, 38.43,  7.56,-45.97,-11.38,-79.55,1903.29; 30.58, -1.66, -1.35,  1.54,-44.09,-267.09,279.71,-30.81,-38.96,-10.69, 28.33,163.94
Uptime 00:00:41, 23.56, -2.13,  0.20, -1.97,174.09,490.72,199.77,  3.95,-47.13,-32.57,-14.71,1928.46; 30.76, -1.59, -1.21, -0.06,-18.91,374.68,-295.94,-37.09,-52.86, -8.88, 76.57,126.65
Uptime 00:00:41, 23.66,  1.87,  1.38, -0.52,274.51,-509.81,211.66, 35.42, 51.69,-69.24,-80.93,1955.56; 30.67,  1.87,  0.38,  0.82, 12.69,483.26,-326.93, 10.64, 64.08, -6.90,141.58, 84.80
Uptime 00:00:41, 23.61, -1.42, -1.83, -0.08,392.58,-509.81, 77.63,-52.16,-37.78, 62.62,-146.62,1965.34; 30.72, -2.13, -2.62,  0.22,199.16,-492.00,275.83,-50.69,-39.07, 16.82, 78.77,119.56
Uptime 00:00:41, 23.56, -2.13,  2.17, -1.75,-485.86,264.08, 17.36, 38.20,-37.43,-57.87,-115.43,1967.53; 30.72, -2.13,  1.38, -0.67,-143.57, 19.14, 69.63, 31.71,-54.27, 34.84, 82.08,128.33
Uptime 00:00:41, 23.71,  0.64,  0.24, -0.43,-161.46,490.72,432.15, 17.59, 52.01,-36.11,-54.12,2022.84; 30.76,  1.05, -1.56, -0.57,-154.24,508.53,-273.36,-52.65, 32.15, 56.04,148.47, 93.34
Uptime 00:00:41, 23.66,  1.87, -1.02, -1.97,-61.52,490.72,-454.60,-20.57, 40.05,-28.20,  4.76,1965.56; 30.62,  1.87,  0.02,  0.56,-127.32,-240.54, -9.86,  0.73, 73.41, 39.21,121.53, 92.10
Uptime 00:00:41, 23.61, -1.52,  0.29,  0.68,-12.09,-94.50,-50.37,  9.82,-63.96,-28.93, -5.73,1959.22; 30.62, -1.44,  0.20,  0.53,-16.99,-352.00, 41.74,  7.39,-68.52, 36.48, 77.00, 97.36
Uptime 00:00:42, 23.61,  0.31, -0.02,  0.72, 36.29,-209.01, 75.74, -1.62, 23.02,-23.84,-32.29,1968.91; 30.62, -0.16, -0.51,  0.91,  9.61,-73.64,-43.92,-28.73, -8.73, 36.38, 66.40, 91.73
Uptime 00:00:42, 23.61, -0.30,  0.34,  1.00, 61.24,108.54,125.97, 17.94,-15.84,-15.44,-17.93,1984.78; 30.72, -0.69,  0.12,  1.12,-37.22,-16.87,-71.08,  5.09,-31.48, 31.16, 63.62, 82.78
Uptime 00:00:42, 23.61, -0.50,  0.30,  0.76, -8.52,  1.74, 22.47, 18.18,-31.39,-15.82,-16.73,1987.61; 30.81, -0.06, -0.49,  1.10,-40.93,125.57,-147.95,-23.81, -2.72, 25.00, 77.91, 64.14
Uptime 00:00:42, 23.66, -0.61,  0.45,  1.25,-30.82,-115.05,-20.43, 17.84,-24.57,-19.01,-30.33,1985.00; 30.72,  0.50, -0.01,  1.19,-13.22,-79.62, 63.14, -0.39, 22.89, 22.84, 65.90, 72.22
Uptime 00:00:42, 23.61,  0.36, -0.21,  1.33,-76.14,-26.50,118.90, -8.74, 14.79,-28.28,-33.32,2000.10; 30.72,  0.14, -0.71,  1.12,-22.07, 49.34, 98.17,-32.08,  6.00, 18.99, 70.61, 84.68
Uptime 00:00:42, 23.66,  0.01,  0.37,  0.80, 89.09, 60.03,146.30, 24.64,  0.49,-16.05,-25.13,2018.83; 30.72,  0.05, -0.40,  1.34,-72.56, 24.68,-83.28,-16.48,  2.18,  9.18, 72.25, 74.02
Uptime 00:00:42, 23.61, -0.67, -0.21,  1.07,-12.12, 65.24, 96.50, -9.23,-31.66,-17.41,-15.94,2030.99; 30.62, -0.31, -0.84,  1.01, 19.24,114.23,-110.24,-38.42,-13.05, 10.60, 85.17, 60.13
Uptime 00:00:42, 23.56, -0.17,  0.60,  1.04,-27.77,-64.32, 14.23, 29.64, -7.90,-19.90,-23.41,2032.78; 30.72, -0.05, -0.11,  1.10, 39.42, 24.53,115.60, -5.50, -2.66, 15.15, 86.55, 74.70
Uptime 00:00:43, 23.66, -0.18, -0.36,  0.96,  7.15, 25.45,145.39,-20.27, -9.71,-19.01,-19.55,2051.39; 30.72,  0.42, -0.39,  0.80,  3.22, 68.47, 34.15,-23.20, 25.25, 14.79, 92.90, 79.07
Uptime 00:00:43, 23.61, -0.32,  0.33,  1.46,-35.63,-32.23,-10.05, 12.52,-12.22,-22.78,-22.89,2050.12; 30.67,  0.12, -0.34,  1.18,-68.74, 10.81, -9.44,-15.86,  5.50,  5.69, 92.27, 77.88
Uptime 00:00:43, 23.66, -0.54,  0.13,  0.48,  0.55,-63.05,-10.32, 10.23,-47.20,-22.05,-29.28,2048.82; 30.72, -0.33, -0.32,  1.02, 61.44,-26.70,151.18,-16.65,-17.00, 12.83, 87.46, 96.93
Uptime 00:00:43, 23.61,  0.57,  0.35,  1.31,-36.41,-76.24, 74.33, 13.62, 22.95,-25.90,-38.72,2058.34; 30.76,  0.16, -0.61,  1.38,-48.49,-21.30, 70.96,-23.64,  5.93,  6.01, 82.92,106.01
Uptime 00:00:43, 23.66,  0.26, -0.17,  0.83, 77.53, -4.70,121.34,-11.24, 16.93,-16.04,-38.86,2073.63; 30.76,  0.19, -0.42,  1.49, 74.42, 39.20,-118.81,-15.71,  6.83, 14.77, 85.97, 91.04
Uptime 00:00:43, 23.61, -0.31, -0.33,  0.99, 16.14,-20.72,-21.60,-17.48,-16.55,-14.07,-40.31,2070.90; 30.76, -0.31, -0.95,  1.40,-44.53, 53.63, 64.14,-33.41,-10.35,  8.31, 91.08, 99.12
Uptime 00:00:43, 23.75, -0.03,  0.49, -0.05,-36.82,-42.18, 49.82, 83.07, -3.62,-11.11,-48.47,2077.28; 30.72, -0.16, -0.35,  0.00,-89.49,-79.85,  9.65,-65.85,-24.15, -4.40, 79.72,100.36
Uptime 00:00:43, 23.71,  0.50,  0.74,  1.32,-67.88, 67.45,151.71, 27.51, 18.35,-18.72,-39.54,2096.39; 30.67,  0.08,  0.37,  1.30, 86.72, 17.13,-57.76, 15.88,  3.45,  6.71, 80.18, 93.08
Uptime 00:00:44, 23.71, -0.89, -0.49,  1.90, 76.22,  3.93,-12.51,-13.16,-24.36, -9.05,-37.77,2094.79; 30.67, -0.04, -1.20,  2.27,-33.94,-88.98,193.04,-27.77, -0.83,  1.76, 67.43,117.79
Uptime 00:00:44, 23.66,  0.04,  0.18, -0.23,-60.73,-61.11, 87.39, 37.33,  8.77, -0.62,-47.98,2105.80; 30.67,  0.31, -0.60,  0.12,-42.07,-10.60,  0.58,-61.49, 26.55, -4.70, 64.24,117.86
Uptime 00:00:44, 23.71,  0.55,  0.49,  1.35,-60.50,106.22,196.46, 18.59, 20.89, -7.71,-34.32,2130.56; 30.76,  0.45, -0.29,  0.84, 52.64, 14.09,-42.28,-16.94, 26.76,  1.56, 64.16,112.54
Uptime 00:00:44, 23.66, -0.80, -0.53,  2.03,144.15,-17.91,-75.47,-13.58,-21.01, 10.26,-35.46,2120.90; 30.67, -0.17, -1.52,  2.27,-75.75,-26.66,138.66,-33.80, -3.64, -8.65, 59.60,130.29
Uptime 00:00:44, 23.71, -0.05,  0.19, -0.26,-120.23,-50.55, 99.25, 35.92, -8.65, 25.62,-44.77,2133.40; 30.72,  0.22, -0.49,  0.13,-26.32,-17.73, 15.65,-62.83, 23.00,-12.98, 55.76,132.26
Uptime 00:00:44, 23.66,  0.43,  0.41,  1.78, 36.86, 88.84,114.59, 12.55, 13.33, 29.91,-33.17,2147.84; 30.81,  0.77,  0.30,  2.13, 30.81, 26.49,-74.84,  7.64, 19.61, -8.77, 57.53,122.83
Uptime 00:00:44, 23.80, -0.80, -0.89,  1.52, 41.79,-14.59,-12.28,-27.36,-24.36, 34.29,-33.95,2146.19; 30.81, -0.87, -1.14,  1.29,-35.36, -2.37,114.52,-36.23,-26.72,-13.99, 56.60,138.29
Uptime 00:00:44, 23.71,  0.55,  0.42,  0.56,-94.20,-44.00, 95.16, 28.36, 37.90, 22.45,-39.50,2158.27; 30.76, -0.15, -0.31,  0.59, 25.51,-60.32, 92.00,-27.09,-12.32,-11.08, 48.20,149.97
Uptime 00:00:45, 23.61,  0.73, -0.62,  1.00,152.98, 15.94, 13.88,-26.54, 31.96, 40.36,-37.39,2160.02; 30.81, -0.53, -0.69,  2.04,  6.40,-14.72,-131.92,-18.26,-13.71,-10.43, 45.70,133.35
Uptime 00:00:45, 23.80,  0.15,  0.40,  0.54,-84.53, 81.19, 27.37, 35.69, 12.67, 29.66,-26.71,2163.52; 30.62, -0.24, -0.49,  0.90,-26.87,123.52,-92.40,-27.70,-12.98,-14.15, 60.54,121.52
Uptime 00:00:45, 23.71, -0.38,  0.00,  1.41,113.06,-47.48,-36.47,  0.01,-15.03, 43.03,-31.73,2158.93; 30.81,  0.39, -0.40,  1.94, -6.38, 79.89, 85.13,-11.39, 10.99,-14.88, 68.97,132.25
Uptime 00:00:45, 23.71,  0.20,  0.07,  0.82,-66.94,-49.52, 60.61,  4.50, 13.73, 33.79,-37.63,2166.75; 30.76,  0.17, -0.92,  1.04, -0.49,-92.67, 53.89,-41.17,  6.81,-15.47, 55.74,139.20
Uptime 00:00:45, 23.66,  0.34,  0.01,  0.69,107.90, 52.86,135.36,  0.91, 26.40, 46.46,-30.88,2183.80; 30.81,  0.04, -0.14,  1.08,  0.57, 58.55, 33.43, -7.29,  2.18,-15.23, 61.81,143.41
Uptime 00:00:45, 23.71, -0.03,  0.32,  1.27,-71.08,-30.81,  2.69, 14.14, -1.53, 37.04,-34.04,2184.14; 30.72,  0.48, -0.53,  1.35,-18.61, 32.04,-136.12,-20.33, 18.44,-17.63, 64.16,126.26
Uptime 00:00:45, 23.66, -0.10,  0.17,  0.77,-10.96,  9.50, 34.14, 12.22, -7.27, 35.15,-32.01,2188.54; 30.72,  0.16, -0.08,  0.79, 59.47, 29.98, 27.63, -5.36, 11.24, -9.87, 66.45,129.83
Uptime 00:00:45, 23.71,  0.13,  0.18,  1.18,-26.69,-32.39, 40.29,  8.66,  6.11, 31.33,-35.49,2193.62; 30.72, -0.04, -0.41,  1.34,-25.92,-31.51, 89.40,-16.80, -1.43,-13.21, 61.25,141.09
Uptime 00:00:46, 23.75,  0.39,  0.14,  0.63,  3.50,  3.07, 79.19, 10.52, 30.85, 31.34,-35.02,2203.60; 30.86,  0.35, -0.28,  0.99, 34.03,  2.91, 20.81,-14.67, 18.60, -9.04, 60.02,143.71
Uptime 00:00:46, 23.75, -0.08,  0.11,  1.39,-25.57, -6.32, 27.77,  4.33, -3.25, 27.60,-35.05,2207.15; 30.72,  0.14,  0.04,  1.43,-19.68,-68.06,-136.17,  1.53,  5.70,-11.29, 50.16,126.28
Uptime 00:00:46, 23.71, -0.02,  0.09,  0.73, -9.56, 18.34, 44.37,  7.39, -1.29, 26.01,-32.06,2212.74; 30.67, -0.17, -0.31,  0.91, 30.11, 47.65, 24.72,-18.23,-10.16, -7.71, 55.25,129.40
Uptime 00:00:46, 23.75,  0.19,  0.14,  1.33, -1.71,-22.79, 25.78,  5.87,  8.24, 25.40,-34.40,2215.99; 30.86, -0.21, -0.08,  1.48,-11.13,  4.36, 94.30, -2.96, -8.18, -8.99, 54.84,141.28
Uptime 00:00:46, 23.61,  0.46,  0.10,  0.70, -2.65,-28.26, 80.24,  6.52, 32.90, 24.68,-37.97,2226.42; 30.81,  0.38, -0.49,  0.73, 22.32, -5.57,-12.11,-30.69, 23.40, -6.60, 52.58,139.72
Uptime 00:00:46, 23.75,  0.05,  0.35,  1.24,  3.27, -0.96,-10.31, 15.58,  2.19, 24.90,-37.37,2225.12; 30.67,  0.41,  0.04,  1.40,  3.41,-14.52,-129.47,  1.52, 16.29, -6.02, 49.39,123.28
Uptime 00:00:46, 23.71, -0.16,  0.24,  0.76, -7.02, 33.71, 15.49, 16.91,-11.39, 23.86,-32.16,2227.11; 30.86,  0.27, -0.16,  0.58, 31.42, 70.27, 31.91,-14.25, 23.88, -2.24, 56.74,127.36
Uptime 00:00:46, 23.66,  0.08,  0.33,  1.17, -4.64,-18.06, 31.48, 15.70,  3.79, 23.13,-33.83,2231.07; 30.67, -0.00, -0.41,  1.43,-25.42,-65.79, 91.98,-16.04, -0.12, -5.65, 47.48,138.95
Uptime 00:00:47, 23.71,  0.51,  0.14,  0.52,-17.91, 11.25,139.71, 11.05, 43.17, 20.68,-32.62,2248.68; 30.76,  0.18, -0.26,  0.52, 50.72, 33.26,-33.39,-25.46, 17.44,  0.21, 50.29,134.74
Uptime 00:00:47, 23.85, -0.14,  0.14,  1.22,-16.33,  7.03,-22.54,  6.31, -6.51, 18.34,-30.96,2245.79; 30.86,  0.24, -0.65,  1.41,-29.97, 21.98,-96.08,-24.56,  8.90, -4.04, 51.87,122.45
Uptime 00:00:47, 23.75, -0.02,  0.33,  0.63,  9.61,-12.52,-18.20, 27.50, -1.99, 19.71,-31.85,2243.50; 30.72,  0.01, -0.10,  0.91,  2.35, 52.52, 21.85, -6.51,  0.49, -3.80, 57.30,125.20
Uptime 00:00:47, 23.80,  0.33,  0.03,  1.34,-14.59,-16.12, 32.56,  1.09, 14.08, 17.53,-33.48,2247.60; 30.76,  0.06, -0.98,  1.49,-51.92,-16.38, 78.37,-33.32,  2.04,-10.80, 54.09,135.07
Uptime 00:00:47, 23.75,  0.13,  0.02,  0.44, 56.35,  9.51,142.90,  1.99, 16.48, 24.29,-31.95,2265.89; 30.91,  0.27, -0.36,  1.01, -7.26, -0.29,-87.07,-19.07, 14.02,-11.88, 52.70,123.93
Uptime 00:00:47, 23.80, -0.10,  0.20,  1.22,-14.33,-11.23, 50.96,  9.47, -4.65, 22.23,-32.60,2272.31; 30.81, -0.32, -0.44,  1.46,  1.29,  9.98,-24.55,-16.33,-11.86,-11.81, 53.11,120.83
Uptime 00:00:47, 23.75,  0.16, -0.14,  1.21, 30.86,-19.80, 10.56, -6.71,  7.37, 25.46,-34.54,2273.65; 30.81, -0.21, -0.21,  1.41,-11.39, 35.04,168.50, -8.49, -8.51,-13.15, 56.55,142.07
Uptime 00:00:47, 23.80,  0.50,  0.05,  0.78,-27.85,-32.62, 34.98,  3.07, 32.52, 21.52,-38.60,2278.12; 30.81,  0.36, -0.47,  1.21, -8.91, -4.45, 17.30,-20.58, 15.49,-14.41, 54.55,144.28
Uptime 00:00:48, 23.85, -0.05,  0.30,  1.27,  8.28, 32.02, 52.20, 13.06, -2.28, 22.37,-33.82,2284.70; 30.81, -0.23,  0.08,  1.55, 19.44,-16.78,-139.74,  2.80, -8.40,-11.67, 51.55,126.67
Uptime 00:00:48, 23.75, -0.11,  0.21,  0.65,-26.84,-54.88, 16.38, 17.91, -9.42, 18.97,-39.74,2286.76; 30.81,  0.08, -0.48,  0.49, 66.78, 52.14, 47.05,-44.05,  7.05, -4.07, 56.82,132.60
Uptime 00:00:48, 23.75,  0.51,  0.09,  1.41,-16.23,-24.85, 12.81,  3.54, 19.86, 16.61,-42.48,2288.42; 30.81, -0.03, -1.07,  1.69,-33.98, -9.41, 99.18,-32.29, -0.97, -8.93, 54.51,145.40
Uptime 00:00:48, 23.85,  0.43, -0.05,  0.12, 35.45, 64.69,144.11, -6.75, 73.25, 20.52,-35.11,2306.57; 30.81,  0.20, -0.40,  0.62, 48.26, 57.20,-71.22,-31.31, 15.00, -3.42, 60.18,136.42
Uptime 00:00:48, 23.80, -0.31,  0.25,  1.30,  8.80,-13.92, 42.08, 10.70,-13.41, 21.43,-35.90,2312.00; 30.81, -0.19, -0.72,  1.30,-32.85, 13.22,-24.95,-28.88, -7.44, -8.08, 60.80,133.20
Uptime 00:00:48, 23.75,  0.41,  0.06,  0.37,  0.51,-58.53,-36.18,  5.75, 48.13, 21.18,-43.37,2307.44; 30.76, -0.34, -0.19,  1.52,-54.41, 55.39,109.71, -6.86,-12.48,-14.78, 66.67,147.03
Uptime 00:00:48, 23.80,  0.71, -0.26,  1.02,-55.11,-43.25,-49.38,-12.03, 33.75, 13.71,-48.52,2301.22; 30.76,  0.15, -1.02,  1.39, 41.35,-31.27, 62.60,-36.23,  4.84,-10.10, 61.38,154.91
Uptime 00:00:49, 23.85,  0.24,  0.17,  0.29, 19.67,116.22,166.26, 23.67, 35.57, 16.38,-33.68,2322.50; 30.86,  0.19, -0.21,  0.92,-24.90, 36.10,-112.53,-12.30, 11.60,-13.27, 64.45,140.51
Uptime 00:00:49, 23.80, -0.21,  0.02,  1.23, 15.33,-27.37, 51.92,  0.74, -9.83, 17.97,-36.22,2329.10; 30.81, -0.18, -0.78,  1.45,-20.97, 47.39,-93.45,-28.05, -6.26,-16.17, 69.19,128.64
Uptime 00:00:49, 23.80, -0.05,  0.21,  0.46, -0.81,  8.22,-35.38, 24.82, -5.11, 18.01,-34.38,2324.64; 30.95, -0.21, -0.12,  1.15,-33.29, 22.27, 45.02, -5.69,-10.08,-20.07, 70.75,134.31
Uptime 00:00:49, 23.75,  0.59, -0.12,  1.29, -1.40,-59.57, 22.08, -5.01, 24.47, 17.37,-41.65,2327.46; 30.95,  0.19, -0.67,  1.51, 10.03, 22.46, 88.56,-23.83,  6.42,-18.89, 72.03,145.65
Uptime 00:00:49, 23.85, -0.08,  0.06,  0.56, 70.92, 45.90,120.69,  6.14, -7.90, 25.91,-34.99,2342.67; 30.95,  0.31, -0.40,  1.02,-32.58,-32.37,-89.79,-20.38, 16.07,-22.94, 66.27,134.34
Uptime 00:00:49, 23.75,  0.03,  0.16,  1.43, 17.91,-38.64, 60.61,  6.41,  1.35, 27.73,-39.09,2350.31; 30.91, -0.34, -0.46,  1.47,-10.39, 42.10,-58.21,-16.89,-12.54,-24.11, 70.39,127.00
Uptime 00:00:49, 23.80, -0.11,  0.01,  1.06,  4.31,-19.20,  6.49,  0.54, -5.69, 27.72,-40.60,2351.14; 30.86,  0.04, -0.38,  1.29,-27.11, -3.56,151.18,-16.36,  1.76,-27.35, 68.50,146.35
Uptime 00:00:49, 23.85,  0.51, -0.01,  0.88,-29.85,-50.20, 69.80, -0.65, 30.46, 23.47,-46.60,2359.93; 30.86,  0.00, -0.47,  1.44, 30.31,-26.48, 42.06,-18.17,  0.10,-23.43, 63.86,151.65
Uptime 00:00:50, 23.80,  0.10,  0.04,  1.00, 32.32, -2.78, 52.87,  2.20,  5.69, 27.10,-46.13,2366.70; 30.86, -0.13, -0.44,  1.55,-47.45, 27.51,-172.40,-15.67, -4.79,-29.22, 66.13,129.58
Uptime 00:00:50, 23.85, -0.07,  0.13,  1.01,-19.28,-15.46, 66.06,  7.50, -3.98, 24.33,-47.04,2375.02; 30.95, -0.06, -0.42,  1.27, 39.61, 32.33,  1.27,-18.37, -2.60,-24.11, 68.85,129.74
Uptime 00:00:50, 23.80,  0.02, -0.12,  1.08, 48.58,-15.75, 29.94, -6.50,  0.84, 29.71,-48.06,2378.80; 30.95,  0.05, -0.17,  1.33,-49.81, 36.15,166.34, -7.41,  2.08,-29.93, 71.90,150.70
Uptime 00:00:50, 23.80,  0.43,  0.12,  0.90,-15.14,-27.28, 80.29,  6.74, 25.32, 27.26,-51.19,2389.55; 30.91,  0.01, -0.42,  1.23, 47.10,-28.49, 36.81,-18.62,  0.42,-23.52, 66.71,155.64
Uptime 00:00:50, 23.75, -0.13, -0.03,  0.88, 50.06, 10.58, 77.98, -1.85, -8.68, 32.86,-48.68,2399.38; 30.91,  0.04, -0.22,  1.32,-58.85, 17.84,-105.48, -9.44,  1.80,-30.50, 67.54,142.34
Uptime 00:00:50, 23.85,  0.01,  0.18,  1.21, -5.04,-26.30, 70.56,  8.50,  0.37, 31.75,-50.96,2408.27; 30.81, -0.15, -0.42,  1.29, 17.13, 54.53,-23.51,-17.90, -6.29,-28.14, 73.05,139.38
Uptime 00:00:50, 23.85,  0.11,  0.08,  0.85,  0.29, 12.60,-13.48,  5.07,  7.39, 31.26,-48.51,2406.55; 31.00, -0.08, -0.40,  1.37,-40.62, 63.01,112.98,-16.08, -3.32,-32.99, 79.56,153.84
Uptime 00:00:50, 23.89,  0.44, -0.04,  1.08,-10.76, -6.17, 39.30, -1.89, 21.97, 29.26,-48.74,2411.50; 30.91,  0.16, -0.57,  1.32,-12.71, 22.38, 66.73,-23.21,  6.41,-34.37, 80.61,162.25
Uptime 00:00:51, 23.94,  0.28,  0.19,  0.75, 62.05, 26.78, 99.85, 13.60, 19.78, 36.61,-44.86,2424.08; 30.81,  0.03, -0.59,  1.28,-68.90, -0.60,-105.22,-24.94,  1.12,-42.68, 78.90,148.99
Uptime 00:00:51, 23.89, -0.06,  0.01,  1.24, 20.03,-24.90, 58.56,  0.47, -2.82, 38.40,-47.03,2431.57; 30.81, -0.30, -0.49,  1.32, 15.27, 39.60,-71.85,-19.79,-12.09,-40.31, 82.53,139.80
Uptime 00:00:51, 23.89, -0.25,  0.20,  0.81, -7.16, -8.09, -5.89, 13.10,-16.77, 37.01,-46.75,2430.83; 30.86, -0.31, -0.46,  1.37,-30.03,-24.35,124.30,-18.14,-12.15,-43.58, 78.11,155.46
Uptime 00:00:51, 23.85,  0.58, -0.10,  1.12,-22.98,-38.81, 51.49, -4.44, 27.19, 33.30,-51.23,2437.42; 30.91, -0.04, -0.47,  1.40, 16.49, 30.58, 63.11,-18.70, -1.71,-41.01, 80.42,163.54
Uptime 00:00:51, 23.89,  0.10,  0.08,  0.77, 50.57,  0.41, 66.66,  6.22,  7.40, 39.00,-50.30,2445.82; 31.00,  0.37, -0.44,  1.06,-54.12,  4.59,-113.68,-21.59, 17.95,-47.30, 79.02,149.21
Uptime 00:00:51, 23.85,  0.12,  0.18,  1.26,-14.41,-46.62, 62.72,  8.26,  5.56, 36.61,-55.16,2453.72; 30.91, -0.08, -0.56,  1.52, 19.19, 36.20,-26.99,-20.27, -2.68,-44.39, 81.96,145.81
Uptime 00:00:51, 23.85,  0.02,  0.03,  0.99,  9.65, 16.31, -3.80,  1.98,  1.40, 37.13,-52.04,2453.24; 30.91, -0.13, -0.16,  1.41,-38.06, 31.97,140.90, -6.37, -5.20,-48.41, 84.44,163.85
Uptime 00:00:51, 23.94,  0.49,  0.04,  0.85,-40.47,-58.62, 62.26,  2.08, 30.12, 31.43,-58.84,2461.08; 30.95,  0.18, -0.70,  1.33, 51.26,-36.22, 20.46,-27.59,  7.02,-41.66, 78.14,166.43
Uptime 00:00:52, 23.89,  0.15, -0.03,  0.96, 44.34, 14.17, 20.79, -1.90,  8.75, 36.24,-56.09,2463.70; 30.81, -0.15, -0.24,  1.43,-25.65,  8.55,-178.81, -9.50, -6.00,-44.18, 77.75,143.90
Uptime 00:00:52, 23.85, -0.03,  0.05,  0.96,-21.40,-15.92, 29.95,  3.17, -1.59, 32.89,-56.93,2467.53; 31.05,  0.11, -0.45,  1.21, 36.77, 31.92, -8.40,-20.29,  4.69,-39.09, 80.11,142.82
Uptime 00:00:52, 23.89,  0.03, -0.15,  1.12, 18.55,-22.75, -5.02, -7.55,  1.29, 34.37,-58.63,2466.90; 30.95, -0.22, -0.05,  1.44,-54.41, 30.41,122.79, -2.01, -8.80,-45.07, 82.43,158.29
Uptime 00:00:52, 23.80,  0.50, -0.11,  0.82,-37.86,-64.78, 31.45, -6.59, 31.33, 28.84,-66.14,2470.90; 31.05,  0.01, -0.77,  1.21, 74.72,-39.97, 23.89,-32.50,  0.33,-35.52, 75.80,161.33
Uptime 00:00:52, 23.94,  0.40,  0.06,  0.79, 59.59, 40.46, 49.28,  3.98, 27.12, 35.82,-60.29,2477.20; 30.95, -0.17, -0.60,  1.26,-75.68,  6.85,-165.15,-25.38, -7.13,-44.81, 75.29,140.19
Uptime 00:00:52, 23.89, -0.03, -0.15,  1.22,-14.69,-25.26, 49.31, -7.20, -1.51, 33.15,-62.17,2483.42; 30.95, -0.11, -1.07,  1.27, 13.62, 75.01,-75.85,-40.05, -3.71,-43.03, 83.12,130.63
Uptime 00:00:52, 23.94, -0.09,  0.24,  0.57, 36.23, 23.82, -5.57, 22.95, -8.19, 37.49,-57.78,2482.70; 30.86, -0.07, -0.19,  1.24,-34.76, 66.88, 70.26, -8.64, -3.09,-46.71, 89.91,139.63
Uptime 00:00:52, 23.99,  0.45, -0.06,  1.18,-16.33,-50.94, 52.41, -2.90, 20.74, 34.66,-63.33,2489.31; 30.95,  0.18, -1.11,  1.34,  2.66,  1.66, 86.14,-39.39,  5.82,-46.23, 88.20,150.48
Uptime 00:00:53, 23.94,  0.26,  0.27,  0.59, 32.52, 26.15,127.57, 22.43, 21.98, 38.43,-59.27,2505.38; 31.05,  0.27, -0.03,  0.80, 22.31, 12.56, 10.50, -2.23, 18.49,-42.60, 87.62,151.80
Uptime 00:00:53, 23.99, -0.04,  0.02,  1.29,  3.96,-10.14, 14.84,  1.02, -1.97, 38.18,-59.32,2507.28; 31.05,  0.19, -0.71,  1.46, -6.56, -9.07,-101.63,-25.80,  6.70,-43.08, 84.59,138.79
Uptime 00:00:53, 23.94,  0.02,  0.37,  0.84,-25.83,  6.34, 21.42, 23.91,  1.35, 34.71,-57.37,2509.98; 30.95, -0.03, -0.25,  0.71, 52.19, 45.52, 10.87,-19.32, -2.07,-36.16, 88.56,140.16
Uptime 00:00:53, 23.94,  0.24,  0.10,  1.17,  2.28,-36.50, 51.56,  4.75, 11.72, 34.39,-61.00,2516.53; 31.00, -0.21, -0.62,  1.34,-35.32, -0.35, 83.27,-24.49, -8.07,-40.33, 86.91,150.74
Uptime 00:00:53, 23.89,  0.48,  0.21,  0.69,  0.96, 12.63,121.02, 13.74, 33.67, 34.10,-58.87,2532.02; 31.00,  0.15, -0.30,  0.75, 37.03,  6.53, -0.84,-21.33, 10.86,-35.30, 85.77,150.63
Uptime 00:00:53, 23.94, -0.12,  0.07,  1.42,-11.34,-10.78,  1.34,  3.00, -4.97, 32.08,-58.93,2532.19; 31.00,  0.28, -0.66,  1.48,-29.25,-14.02,-103.11,-23.83,  9.87,-38.68, 82.13,137.64
Uptime 00:00:53, 23.89,  0.01,  0.28,  0.87,-16.58, -6.58, 29.88, 17.85,  0.92, 29.74,-58.58,2535.95; 30.91, -0.03, -0.33,  0.85, 60.08, 57.14, 22.44,-21.19, -2.00,-30.92, 87.58,140.47
Uptime 00:00:53, 23.94,  0.17,  0.04,  1.19,-19.86,-40.76, 24.32,  1.73,  7.96, 26.69,-62.68,2539.06; 31.00, -0.28, -0.53,  1.29,-62.45, -9.06,107.50,-21.79,-11.28,-38.57, 84.92,154.22
Uptime 00:00:54, 23.89,  0.43,  0.16,  0.69,  9.35,-23.88, 79.27, 11.09, 31.35, 27.53,-65.00,2549.05; 31.00,  0.51, -0.37,  1.07, 42.39,-14.20, 15.47,-17.22, 24.08,-32.91, 80.99,156.17
Uptime 00:00:54, 23.94,  0.06,  0.15,  1.35,-17.59, 10.43, 23.20,  6.20,  2.46, 24.94,-62.46,2551.98; 31.00, -0.03, -0.04,  1.31,-32.84,-68.90,-132.55, -1.67, -1.29,-36.34, 70.89,139.47
Uptime 00:00:54, 23.99, -0.03,  0.23,  0.96,-22.41,-18.29, 47.30, 13.45, -1.95, 21.90,-63.47,2558.03; 30.91,  0.01, -0.42,  1.02, 37.80, 42.32, 14.17,-22.32,  0.44,-31.31, 74.77,141.29
Uptime 00:00:54, 23.94,  0.21,  0.02,  1.25,  1.70, -7.11, 34.62,  0.69,  9.52, 21.68,-63.27,2562.39; 31.00, -0.13, -0.21,  1.40,-47.26, 30.15,116.40, -8.34, -5.23,-36.69, 77.10,155.95
Uptime 00:00:54, 23.94,  0.44,  0.06,  0.66,-34.32, -7.85, 55.11,  4.33, 33.44, 17.03,-63.66,2569.45; 31.09,  0.34, -0.37,  0.97, 66.49,-21.86,  4.73,-19.76, 18.11,-28.01, 72.45,156.56
Uptime 00:00:54, 24.08,  0.01,  0.06,  1.15, 20.84,  5.18,  9.98,  3.09,  0.38, 19.32,-61.75,2570.70; 31.00, -0.09, -0.17,  1.35,-52.87,-41.09,-158.03, -7.03, -3.69,-34.12, 66.00,136.65
Uptime 00:00:54, 23.94,  0.04,  0.16,  1.01,-10.23,-28.75, 29.77,  9.24,  2.28, 17.86,-64.11,2574.46; 30.95, -0.01, -0.51,  1.26, 44.00, 26.97,-23.66,-21.89, -0.47,-28.44, 68.02,133.66
Uptime 00:00:54, 23.99,  0.04, -0.02,  0.96, 21.79, -2.73, 14.04, -1.03,  2.51, 20.21,-63.22,2576.25; 31.09, -0.03, -0.13,  1.44,-34.90, 43.22,114.15, -5.30, -1.22,-32.36, 72.11,148.27
Uptime 00:00:55, 24.04,  0.65, -0.16,  1.07,-23.43,-26.09, 32.03, -7.33, 31.06, 16.77,-65.80,2580.29; 30.95, -0.00, -0.68,  1.29, 49.45, 30.33, 49.40,-27.67, -0.09,-26.16, 74.42,154.50
Uptime 00:00:55, 23.99,  0.11,  0.17,  0.45, 64.32, 73.62,143.22, 20.37, 12.74, 24.78,-55.65,2598.33; 31.05,  0.15, -0.13,  1.16,-60.88, -0.38,-56.87, -6.34,  7.31,-33.28, 72.73,147.33
Uptime 00:00:55, 23.94, -0.11,  0.08,  1.24, -9.13,-40.15, 88.26,  3.49, -5.00, 23.21,-59.47,2609.63; 31.05, -0.02, -0.91,  1.39, 19.97, 51.25,-70.95,-33.23, -0.52,-30.77, 77.72,138.25
Uptime 00:00:55, 23.89, -0.18,  0.36,  0.69,-11.56,-10.97, 25.40, 26.65,-12.97, 21.86,-59.38,2612.83; 31.00, -0.20,  0.01,  0.91,  5.27,  9.36, 49.18,  0.89,-12.24,-29.49, 77.56,144.45
Uptime 00:00:55, 24.08,  0.49, -0.01,  1.09,  7.65,-33.62, 50.88, -0.69, 23.98, 22.35,-62.82,2619.24; 31.05, -0.01, -0.81,  1.42,  0.60, 43.22,112.70,-29.80, -0.37,-29.42, 81.36,158.65
Uptime 00:00:55, 24.04,  0.46,  0.27,  0.65, -2.14, 21.51,102.12, 19.02, 33.40, 22.01,-59.53,2632.32; 31.05,  0.25, -0.32,  0.75, 44.51, 34.36, 17.86,-21.91, 17.32,-23.69, 83.69,160.94
Uptime 00:00:55, 24.08, -0.10,  0.13,  1.39, -8.91,  4.26,-21.74,  5.33, -4.23, 20.58,-57.73,2629.58; 31.14,  0.28, -0.70,  1.33,-16.06,-24.20,-87.99,-27.02, 10.52,-25.74, 78.82,149.85
Uptime 00:00:56, 23.94,  0.13,  0.33,  0.71, -5.40,  3.22, -7.18, 24.43,  9.67, 19.79,-56.26,2628.41; 31.09, -0.21, -0.01,  0.93,-10.78,109.23, 71.57, -0.83,-12.91,-26.96, 94.95,161.52
Uptime 00:00:56, 23.99,  0.23,  0.09,  1.12,  1.82,-35.37, 17.63,  4.54, 11.63, 19.71,-59.73,2630.63; 31.09,  0.13, -0.90,  1.39,-20.27,-46.70, 70.30,-32.70,  4.33,-29.58, 87.20,170.37
Uptime 00:00:56, 23.94,  0.44,  0.23,  0.59,  9.93, 35.09,113.86, 17.72, 34.81, 20.90,-54.90,2644.97; 31.19,  0.12, -0.29,  0.79, 37.51, 32.64, -4.38,-19.87,  8.41,-24.75, 89.32,169.82
Uptime 00:00:56, 24.04, -0.04,  0.07,  1.43, -6.17,-22.17,  2.56,  2.81, -1.49, 19.76,-56.55,2645.30; 31.09,  0.27, -0.66,  1.49,-23.10,  6.46,-138.06,-23.53,  9.56,-27.62, 88.15,152.15
Uptime 00:00:56, 24.04, -0.09,  0.28,  0.70,-17.01, 28.60, 24.08, 21.49, -7.13, 17.70,-51.75,2648.34; 31.09,  0.03, -0.03,  0.70, 55.21, 85.37, 17.14, -2.83,  2.52,-20.31, 96.88,154.31
Uptime 00:00:56, 23.99,  0.13,  0.14,  1.24,  6.67,-20.21, 54.33,  6.20,  5.90, 18.29,-53.33,2655.18; 31.09, -0.15, -0.51,  1.40,-47.87,-20.66,106.20,-20.00, -5.84,-26.22, 92.51,167.69
Uptime 00:00:56, 24.04,  0.42,  0.07,  0.70, 20.90, -7.01, 79.72,  4.94, 30.93, 20.65,-53.76,2665.39; 31.09,  0.34, -0.34,  0.87, 28.35,  5.49,  9.88,-19.97, 20.31,-22.53, 90.94,168.96
Uptime 00:00:56, 23.99, -0.06,  0.13,  1.31,-11.45,-29.97, 34.17,  5.88, -2.56, 18.94,-56.33,2669.69; 31.09,  0.14, -0.08,  1.31,-28.42,-64.96,-111.18, -3.64,  6.01,-25.67, 80.98,154.95
Uptime 00:00:57, 23.99,  0.07,  0.12,  0.90,  0.44, 16.02, 41.05,  7.65,  4.58, 18.77,-53.32,2674.86; 31.09, -0.02, -0.40,  1.14, 54.32, 55.92,  4.95,-19.54, -0.73,-18.84, 86.28,155.57
Uptime 00:00:57, 24.04,  0.03, -0.05,  1.26,-10.79,-17.97, 20.12, -2.09,  1.32, 17.00,-54.53,2677.44; 31.09, -0.25, -0.07,  1.30,-17.68, 70.79,113.54, -2.87,-10.71,-20.73, 93.65,170.10
Uptime 00:00:57, 24.08,  0.31, -0.12,  1.02,  3.06,-55.31, 40.30, -6.41, 16.79, 16.91,-60.61,2682.52; 31.05,  0.03, -0.57,  1.20, 14.77,-33.24, 35.50,-25.47,  1.21,-19.00, 87.65,174.58
Uptime 00:00:57, 24.04,  0.22,  0.11,  1.17, 31.44,-18.72, 69.17,  5.39, 10.46, 20.65,-61.97,2691.44; 31.05, -0.40, -0.62,  1.38,-35.07, 11.22,-144.50,-23.50,-14.85,-23.49, 87.60,156.08
Uptime 00:00:57, 24.08,  0.12,  0.13,  1.03,-17.89, -9.66, 47.19,  6.86,  6.61, 18.17,-62.06,2697.39; 31.14, -0.03, -0.41,  1.26, 23.44, 57.59,  3.82,-18.26, -1.20,-20.47, 93.04,156.56
Uptime 00:00:57, 24.13,  0.14, -0.05,  1.15, -1.95, -5.08, 15.08, -2.55,  6.83, 17.51,-61.58,2699.29; 31.05, -0.38, -0.31,  1.45, -5.52, 26.06,106.29,-11.75,-14.51,-20.98, 94.68,169.96
Uptime 00:00:57, 24.08,  0.51, -0.10,  0.83,-22.24,-53.16, -7.65, -5.76, 31.06, 14.25,-67.64,2698.31; 31.05,  0.38, -0.76,  1.25, 16.61, 20.61, 46.89,-30.07, 14.49,-19.08, 95.08,175.96
Uptime 00:00:57, 24.04,  0.09,  0.15,  1.05, 14.92, 49.62, 56.95,  8.22,  4.80, 15.98,-60.25,2705.48; 31.19, -0.13, -0.39,  1.10,  2.20,-85.24,-170.66,-19.31, -6.57,-18.81, 82.79,154.46
Uptime 00:00:58, 24.08,  0.04,  0.03,  1.13, 11.31,-27.34, 18.70,  1.43,  2.12, 17.08,-62.47,2707.84; 31.14, -0.43, -0.49,  1.28, 11.29,  6.04,-22.84,-19.97,-17.28,-17.44, 82.23,151.58
Uptime 00:00:58, 23.99,  0.13,  0.05,  1.14,-16.75,-21.71, -7.63,  2.52,  6.38, 14.69,-64.07,2706.86; 31.14, -0.03, -0.23,  1.33,-38.68, 38.61,123.36, -9.59, -1.23,-22.13, 85.45,167.37
Uptime 00:00:58, 24.04,  0.52, -0.08,  0.95,-19.63,-46.50, 21.11, -4.45, 28.52, 11.88,-69.10,2709.52; 31.05,  0.18, -0.66,  1.25, 38.92,-13.62, 24.87,-27.73,  7.16,-17.44, 81.91,170.50
Uptime 00:00:58, 24.08,  0.22,  0.14,  1.10, 31.09, 21.15, 54.50,  7.26, 11.19, 15.63,-65.33,2716.39; 31.14, -0.12, -0.52,  1.27,-43.28,-10.52,-177.99,-22.29, -4.84,-22.88, 79.07,148.08
Uptime 00:00:58, 24.13, -0.05, -0.04,  1.20, 16.49,-37.25, 29.39, -2.09, -2.43, 17.36,-68.68,2720.18; 31.05, -0.12, -0.40,  1.37,-17.26, 10.23,-36.21,-16.24, -4.78,-24.93, 78.88,143.40
Uptime 00:00:58, 23.99, -0.05, -0.04,  1.00, 12.12,-12.62,  7.82, -2.24, -2.76, 18.46,-68.81,2721.17; 31.14,  0.15, -0.37,  1.31,-33.89, 14.79,134.26,-15.77,  6.39,-28.93, 79.00,160.32
Uptime 00:00:58, 24.04,  0.48, -0.05,  0.96,-20.59,-33.68, 47.69, -2.41, 26.50, 15.46,-72.19,2727.27; 31.19,  0.10, -0.47,  1.39, 33.55,-15.74, 33.48,-18.87,  3.75,-24.52, 75.37,164.61
Uptime 00:00:58, 24.08, -0.01,  0.08,  0.90, 40.92,  1.38, 65.69,  5.13, -0.55, 20.31,-70.57,2735.55; 31.19,  0.01, -0.37,  1.42,-46.20,-14.74,-153.02,-14.43,  0.57,-30.03, 72.03,145.32
Uptime 00:00:59, 24.13,  0.01,  0.14,  1.15, -1.88,-34.35, 66.23,  7.15,  0.46, 19.81,-73.44,2743.96; 31.05, -0.02, -0.60,  1.40, 25.87, 30.23,  1.18,-23.29, -0.61,-26.67, 74.37,145.47
Uptime 00:00:59, 24.13,  0.08, -0.15,  0.98, 55.71,  1.35, 13.08, -8.52,  4.74, 26.23,-71.90,2745.63; 31.09, -0.02, -0.07,  1.43,-57.00, 30.26,166.35, -2.61, -0.89,-33.34, 76.69,166.77
Uptime 00:00:59, 24.08,  0.44,  0.04,  0.98,-45.68, -8.30, 62.11,  2.31, 24.05, 20.12,-71.96,2753.46; 31.19, -0.19, -0.56,  1.28, 55.50, -8.96, 31.85,-23.53, -7.72,-26.29, 74.21,170.78
Uptime 00:00:59, 24.13,  0.10,  0.08,  0.57, 30.09, 28.54, 91.86,  7.99,  9.83, 23.59,-67.20,2765.03; 31.09, -0.26, -0.29,  1.22,-78.03,-33.65,-123.08,-13.14,-11.62,-35.66, 68.80,155.27
Uptime 00:00:59, 24.08,  0.07, -0.00,  1.19, -8.62,-34.56, 77.10, -0.15,  3.25, 22.02,-70.29,2774.98; 31.19, -0.00, -0.81,  1.27, 20.03, 87.84,-65.66,-32.72, -0.01,-33.07, 78.53,146.80
Uptime 00:00:59, 24.04, -0.30,  0.17,  0.69,  7.68, 60.92, 39.69, 12.64,-22.66, 22.79,-60.91,2779.98; 31.19, -0.13,  0.28,  1.18, 16.32, 32.78, 25.97, 13.49, -6.27,-30.13, 81.13,150.07
Uptime 00:00:59, 23.99,  0.17, -0.02,  1.13,  0.41,-54.17, 54.12, -1.10,  8.78, 22.36,-66.55,2786.80; 31.09,  0.00, -0.65,  1.24,-12.87, 42.87,125.71,-27.73,  0.17,-31.67, 84.80,165.91
Uptime 00:00:59, 24.04,  0.30,  0.22,  0.88, 29.85, 31.10, 72.37, 13.37, 18.20, 25.92,-61.69,2796.06; 31.09,  0.39, -0.31,  0.95, -0.96,-15.38,-13.04,-16.54, 21.21,-31.48, 80.75,164.24
Uptime 00:01:00, 24.18, -0.12,  0.14,  1.36, -1.37,-30.46,  5.74,  6.02, -5.09, 25.36,-64.11,2796.79; 31.09,  0.12, -0.23,  1.30,-48.84,-20.16,-101.15, -9.84,  5.19,-37.08, 76.54,151.50
Uptime 00:01:00, 24.13, -0.03,  0.17,  0.96, 21.56,  3.19, 25.62, 10.01, -1.63, 27.71,-62.40,2800.01; 31.19, -0.10, -0.44,  1.28, 44.57, 51.74,-21.53,-19.09, -4.06,-31.22, 81.48,148.79
Uptime 00:01:00, 24.13, -0.43,  0.15,  0.82, 22.12,-34.23, 34.03,  9.32,-27.23, 30.12,-64.90,2804.37; 31.09, -0.18, -0.22,  1.44,-57.37, 16.62,129.82, -8.64, -6.84,-37.96, 82.07,165.40
Uptime 00:01:00, 24.18,  0.38, -0.14,  1.15,-28.96,-65.33, 23.69, -6.65, 18.20, 25.81,-72.03,2807.35; 31.14,  0.05, -0.80,  1.38, 21.12,-25.65, 79.53,-30.09,  1.77,-35.20, 77.23,175.42
Uptime 00:01:00, 24.08,  0.31,  0.28,  0.50, -3.37, 34.41,129.31, 25.23, 28.39, 25.37,-66.84,2823.91; 31.19,  0.20,  0.03,  0.85,-34.70, 28.14,-26.50,  1.89, 13.51,-38.81, 78.94,172.03
Uptime 00:01:00, 24.08,  0.10, -0.00,  1.28,  9.97, -6.47, 47.51, -0.10,  4.40, 26.10,-66.40,2829.94; 31.19,  0.22, -0.70,  1.52,  0.89, 48.04,-96.76,-24.54,  7.58,-38.41, 83.15,159.84
Uptime 00:01:00, 24.13,  0.00,  0.39,  0.69,-39.16, 30.80,-18.99, 29.28,  0.23, 21.37,-61.31,2827.57; 31.09, -0.02, -0.11,  0.77, 17.30, 49.20, 14.23, -7.93, -1.20,-35.67, 87.58,161.63
Uptime 00:01:00, 24.18,  0.35,  0.15,  1.30, 12.93,-46.21, 36.06,  6.27, 15.17, 22.69,-66.18,2832.18; 31.24,  0.09, -0.80,  1.56,  5.10, -5.48, 66.76,-27.15,  3.08,-34.86, 85.08,170.18
Uptime 00:01:01, 24.13,  0.30,  0.26,  0.53,-12.18, 37.64,136.64, 23.26, 27.01, 21.20,-60.75,2849.40; 31.14, -0.05, -0.10,  0.56, 13.15, -6.83,-41.13,-10.15, -5.51,-32.74, 82.65,164.99
Uptime 00:01:01, 24.08,  0.11, -0.05,  1.35,  5.48,-21.63, 29.43, -2.08,  4.74, 21.41,-62.30,2853.11; 31.24,  0.33, -0.72,  1.53,-29.32, 13.16,-89.91,-24.70, 10.95,-36.20, 82.40,153.67
Uptime 00:01:01, 24.13,  0.01,  0.28,  0.61,-29.11, 15.94, -7.10, 24.50,  0.77, 17.82,-59.07,2852.20; 31.24, -0.05, -0.08,  0.77, 38.77, 55.39, 25.42, -6.13, -3.60,-30.74, 87.77,156.92
Uptime 00:01:01, 24.13,  0.17,  0.13,  1.28,  9.31,-63.25, 68.66,  5.89,  7.60, 18.73,-65.85,2860.85; 31.24,  0.05, -0.81,  1.50,-24.87,-21.41,100.44,-28.14,  1.81,-33.75, 83.34,169.58
Uptime 00:01:01, 24.27,  0.70,  0.17,  0.69,-10.96,-21.10, 77.98,  9.60, 44.65, 17.20,-68.03,2870.67; 31.24,  0.17, -0.39,  0.69, 51.80, 45.63, 35.10,-29.04, 11.85,-27.26, 87.07,174.00
Uptime 00:01:01, 24.13,  0.04, -0.04,  1.13,  8.51,  6.26,-10.03, -2.04,  2.03, 17.94,-65.88,2869.32; 31.14,  0.39, -0.68,  1.51, -7.43,-23.99,-101.80,-23.63, 13.06,-28.17, 81.89,160.25
Uptime 00:01:01, 24.18,  0.16,  0.50,  0.68,-31.13, -8.10,-33.83, 35.50, 10.94, 14.44,-65.78,2865.06; 31.19, -0.10,  0.06,  1.22, 28.51, 27.42,-10.46,  2.84, -4.50,-24.03, 83.73,158.94
Uptime 00:01:01, 24.13,  0.66, -0.12,  1.20,-39.51, -6.61, -3.44, -5.03, 28.76,  9.10,-65.87,2864.62; 31.19,  0.16, -1.22,  1.38,  7.65, -3.06,  9.66,-41.23,  4.95,-23.42, 81.57,160.17
Uptime 00:01:02, 24.08,  0.29,  0.24,  0.75,  3.35, 71.99,100.08, 16.84, 20.10,  9.67,-56.07,2877.23; 31.19,  0.46, -0.26,  0.80, 45.10, -5.04,-48.82,-15.61, 28.62,-17.69, 78.75,154.02
Uptime 00:01:02, 24.22, -0.12,  0.01,  1.19, -9.72, -0.96, 26.67,  0.56, -5.99,  8.27,-54.95,2880.61; 31.24,  0.01, -0.36,  1.34,-33.51,-16.80,-94.61,-15.14,  0.54,-21.81, 75.07,142.01
Uptime 00:01:02, 24.18,  0.04,  0.32,  0.99,-23.46,  5.62, 49.05, 17.89,  1.94,  5.50,-53.18,2886.94; 31.19, -0.38, -0.39,  1.21, 39.32, 50.75,  0.18,-17.00,-16.72,-16.74, 80.32,142.03
Uptime 00:01:02, 24.04, -0.32, -0.05,  1.13, 34.81,-21.71, 77.16, -2.66,-15.93,  9.64,-54.47,2896.66; 31.28,  0.53, -0.28,  1.31,-55.32, 36.35,180.44,-11.06, 21.56,-23.46, 82.77,164.77
Uptime 00:01:02, 24.13,  0.36, -0.01,  0.87,-16.32, -2.52, 78.76, -0.61, 22.20,  7.40,-54.14,2906.67; 31.19, -0.18, -0.37,  1.32,  7.19,-15.41, 54.14,-15.37, -7.36,-22.41, 79.34,171.64
Uptime 00:01:02, 24.13, -0.08,  0.15,  1.16, 35.10,-41.97, 51.63,  7.53, -3.79, 11.84,-58.29,2913.33; 31.19, -0.51, -0.41,  1.43,-18.45, 21.08,-108.12,-15.08,-18.84,-24.59, 80.80,157.69
Uptime 00:01:02, 24.22, -0.19,  0.28,  0.99,-24.12,-33.88, 67.83, 15.46,-10.18,  8.93,-61.10,2921.87; 31.28, -0.20, -0.52,  1.28, 36.05, 28.43, 32.72,-21.93, -8.09,-20.09, 82.85,161.82
Uptime 00:01:03, 24.27,  0.20, -0.02,  1.20,  4.98, 10.35, 37.65, -0.79,  9.38,  9.35,-58.79,2926.62; 31.28, -0.03, -0.15,  1.25,-44.13, 66.88,153.85, -6.96, -1.14,-25.27, 89.48,181.20
Uptime 00:01:03, 24.13,  0.35,  0.03,  0.77, 10.23, -9.51,106.30,  2.24, 24.23, 10.50,-59.29,2940.22; 31.28,  0.18, -0.40,  1.05, 38.89,  4.21,  4.63,-20.62,  9.09,-20.30, 88.04,181.79
Uptime 00:01:03, 24.22, -0.08,  0.19,  1.20,-11.05,-23.04, 47.08,  9.12, -3.82,  9.10,-60.87,2946.16; 31.19, -0.26, -0.12,  1.32,-34.87,-38.05,-86.58, -4.97,-10.89,-24.30, 81.79,170.88
Uptime 00:01:03, 24.22, -0.05,  0.24,  0.98,-24.18,-12.44, 61.51, 13.71, -2.89,  6.16,-61.16,2954.03; 31.28, -0.19, -0.49,  1.06, 48.40, 38.04, 33.43,-24.49, -9.10,-18.23, 85.11,175.16
Uptime 00:01:03, 24.18,  0.07,  0.09,  1.11, 15.83,-24.56, 36.11,  4.76,  3.58,  8.09,-63.04,2958.58; 31.19, -0.03, -0.23,  1.40,-32.62, 34.68,158.47, -9.44, -1.08,-22.09, 87.71,195.13
Uptime 00:01:03, 24.22,  0.42,  0.14,  0.73,-26.43,-11.81, 71.78,  9.50, 29.24,  4.85,-63.82,2967.62; 31.24,  0.28, -0.35,  1.01, 29.13,  1.98, 12.03,-18.32, 14.60,-18.41, 85.91,196.65
Uptime 00:01:03, 24.27, -0.08,  0.19,  1.22, -1.16, -3.59, 37.20,  8.68, -3.92,  4.79,-62.92,2972.39; 31.19, -0.05, -0.37,  1.43,-19.89,-42.83,-109.88,-14.44, -1.94,-20.83, 78.86,182.58
Uptime 00:01:03, 24.27, -0.03,  0.42,  0.93,-49.54,-19.26, 27.42, 24.29, -1.67, -0.94,-64.00,2975.84; 31.24, -0.21, -0.54,  0.87, 59.22, 17.57, 20.12,-31.45,-11.57,-13.73, 79.69,185.12
Uptime 00:01:04, 24.13,  0.42, -0.10,  1.29,  3.91,-43.83, 15.17, -4.30, 18.06, -0.53,-68.50,2977.75; 31.24,  0.09, -0.68,  1.49,-31.66, 51.16, 91.72,-24.59,  3.16,-17.86, 84.35,196.67
Uptime 00:01:04, 24.18,  0.34,  0.10,  0.59,-38.69, 32.55,117.45,  8.44, 29.71, -5.20,-63.64,2992.79; 31.24,  0.26, -0.36,  0.63, 28.52,  2.90,-49.92,-27.78, 19.75,-14.48, 82.63,190.28
Uptime 00:01:04, 24.22, -0.14, -0.07,  1.27, 21.80,  3.06,-30.81, -3.19, -6.12, -2.47,-61.87,2988.90; 31.28,  0.22, -0.67,  1.50,-37.05,-26.58,-100.98,-23.95,  7.57,-19.24, 77.54,177.56
Uptime 00:01:04, 24.18, -0.03,  0.28,  0.61,-38.90,  8.09,-13.57, 24.80, -2.94, -6.72,-59.57,2987.19; 31.24,  0.10, -0.19,  0.76, 45.13, 55.02, 24.55,-13.71,  6.95,-13.56, 82.64,180.65
Uptime 00:01:04, 24.13,  0.54,  0.09,  1.41, 14.08,-29.36, -2.81,  3.36, 20.73, -4.76,-62.48,2986.83; 31.24,  0.08, -1.02,  1.55, -3.05,-23.16, 73.24,-33.50,  2.32,-14.34, 78.04,190.03
Uptime 00:01:04, 24.27,  0.20,  0.07,  0.32, 39.42, 50.52,135.63, 10.68, 31.62,  0.42,-55.62,3003.92; 31.24,  0.07, -0.08,  1.06, -7.57,-17.04,-47.91, -4.38,  3.97,-15.07, 74.30,183.99
Uptime 00:01:04, 24.13, -0.13, -0.05,  1.40, 12.20,-31.02, 41.19, -2.03, -5.21,  1.90,-58.30,3009.20; 31.24, -0.11, -0.92,  1.42,-10.67, 30.14,-62.76,-33.00, -3.61,-16.77, 76.66,175.96
Uptime 00:01:04, 24.18, -0.03,  0.15,  0.40,-12.29, -4.52,-26.00, 20.04, -3.66,  0.75,-57.61,3005.92; 31.24, -0.45, -0.12,  1.24,-28.90, 32.41, 77.22, -5.01,-19.79,-20.10, 79.53,185.69
Uptime 00:01:05, 24.18,  0.68, -0.11,  1.17,-30.32,-42.88, 15.39, -4.49, 29.92, -3.10,-62.36,3007.86; 31.24,  0.18, -0.89,  1.37, 46.31,-13.93, 44.00,-32.75,  6.31,-14.64, 76.09,191.23
Uptime 00:01:05, 24.32,  0.34,  0.15,  0.40, 41.54, 54.37, 94.41, 15.92, 38.51,  2.49,-55.06,3019.94; 31.19,  0.12, -0.31,  1.17,-49.32,  1.59,-74.28,-14.80,  5.74,-20.83, 74.65,181.72
Uptime 00:01:05, 24.18, -0.09, -0.16,  1.15,-12.58, -4.27, 35.80, -8.11, -4.25,  0.72,-54.40,3024.45; 31.28,  0.02, -1.02,  1.32, -1.89, 28.53,-123.89,-37.74,  0.53,-21.40, 76.67,166.11
Uptime 00:01:05, 24.32, -0.10,  0.30,  0.85,-11.46, 34.40, 23.74, 19.24, -6.13, -0.32,-48.94,3027.45; 31.24, -0.03, -0.07,  0.92, 44.87, 16.59, 16.43, -4.14, -1.61,-15.51, 77.22,168.18
Uptime 00:01:05, 24.18,  0.39,  0.06,  1.23,  5.88,-80.41, 39.53,  2.66, 17.70,  0.48,-58.48,3032.54; 31.28, -0.22, -0.73,  1.46,-25.07, 24.36,104.99,-26.31, -7.73,-18.90, 78.91,181.73
Uptime 00:01:05, 24.22,  0.30,  0.21,  0.75, 16.35, 17.36,113.59, 14.57, 21.44,  2.78,-55.60,3046.86; 31.28,  0.25, -0.41,  0.85, 37.73,-15.10,  2.56,-24.91, 15.11,-14.36, 75.16,182.05
Uptime 00:01:05, 24.27, -0.14,  0.17,  1.34,  5.31, -3.72, 31.86,  7.02, -5.81,  3.52,-54.83,3050.87; 31.19,  0.11, -0.65,  1.40,-22.15, -9.38,-56.52,-24.70,  4.22,-17.30, 72.42,174.93
Uptime 00:01:05, 24.32, -0.09,  0.47,  0.91,-44.01,-16.46, 23.66, 27.20, -4.99, -1.57,-55.71,3053.92; 31.28, -0.13, -0.40,  0.94, 60.26, 14.76, 31.63,-23.15, -7.40, -9.80, 72.99,179.01
Uptime 00:01:06, 24.22,  0.27,  0.01,  1.19, 22.78,-59.95, 40.14,  0.63, 12.89,  1.29,-62.26,3058.98; 31.19, -0.29, -0.58,  1.37,-27.54, 25.13,118.50,-22.45,-10.93,-13.45, 74.85,193.94
Uptime 00:01:06, 24.18,  0.37,  0.22,  0.72,-13.33,  7.90,104.69, 15.03, 26.46, -0.08,-60.57,3072.17; 31.19,  0.30, -0.34,  0.70, 47.18, 10.33,  4.99,-24.49, 21.11, -7.85, 74.20,194.57
Uptime 00:01:06, 24.32, -0.17,  0.04,  1.35,  1.61,-11.57, 11.46,  1.54, -7.03,  0.15,-60.67,3073.64; 31.28,  0.12, -0.75,  1.34, -9.71,-35.03,-65.11,-29.25,  4.30, -9.49, 68.24,186.24
Uptime 00:01:06, 24.27,  0.04,  0.45,  0.82,-34.98, -6.15, 15.95, 29.06,  2.71, -3.59,-60.27,3075.65; 31.38, -0.07, -0.35,  0.79, 45.90, 55.81, 35.60,-24.00, -4.92, -4.12, 73.87,190.72
Uptime 00:01:06, 24.22,  0.45,  0.06,  1.19, 31.38,-29.08, 33.82,  2.53, 20.71,  0.47,-63.13,3079.98; 31.38,  0.06, -0.90,  1.53,  8.14, 42.20, 86.18,-30.31,  1.90, -3.62, 77.64,201.75
Uptime 00:01:06, 24.27,  0.33,  0.26,  0.46, -1.80, 50.19,143.59, 24.88, 31.74,  0.74,-56.30,3098.07; 31.19, -0.04, -0.37,  0.59, 40.90, -7.85,-38.24,-31.92, -3.33,  0.86, 75.19,196.93
Uptime 00:01:06, 24.32, -0.04, -0.11,  1.41, 27.82,-38.94, 24.21, -4.40, -1.45,  4.07,-59.95,3101.12; 31.28,  0.23, -0.79,  1.51,-20.64, 38.94,-52.53,-27.43,  7.71, -2.25, 78.34,190.32
Uptime 00:01:06, 24.18, -0.05,  0.23,  0.33,-20.36, 11.16,-27.36, 34.63, -7.61,  2.13,-57.20,3097.62; 31.28, -0.27, -0.02,  1.04, -1.58, 50.36, 49.71, -1.14,-14.67, -2.43, 83.38,196.68
Uptime 00:01:07, 24.36,  0.65,  0.07,  1.29,  2.08,-24.75, 13.82,  2.88, 26.52,  2.40,-59.65,3099.36; 31.24,  0.26, -0.62,  1.55,  8.54,  7.83, 81.72,-21.49,  8.95, -1.75, 82.50,206.98
Uptime 00:01:07, 24.36,  0.06,  0.13,  0.54, 64.81, 33.13,103.04, 13.73,  5.92, 10.63,-54.48,3112.34; 31.28,  0.52, -0.25,  1.05,-34.18, 18.90,-86.44,-11.91, 25.45, -6.18, 82.68,196.08
Uptime 00:01:07, 24.27,  0.02,  0.46,  1.17,-45.68,-28.79, 63.65, 21.22,  0.82,  4.84,-57.19,3120.87; 31.24, -0.19, -0.26,  1.48, 16.98, 43.22,-12.78,-10.03, -7.32, -4.02, 86.85,194.37
Uptime 00:01:07, 24.32,  0.25,  0.05,  0.92, -3.57,-26.35, -0.89,  3.24, 15.25,  4.37,-59.60,3120.76; 31.33,  0.21, -0.19,  1.43,-36.65,-19.86,141.53, -7.61,  8.26, -8.62, 82.49,212.20
Uptime 00:01:07, 24.46,  0.66,  0.28,  0.97,-43.11, -6.90, 88.20, 13.41, 33.27, -0.77,-59.93,3131.87; 31.33,  0.68, -0.61,  0.80, 31.09,  7.01,-43.04,-30.11, 34.06, -5.21, 81.02,206.78
Uptime 00:01:07, 24.32, -0.57, -0.11,  1.21,  2.57, 18.43, 14.26, -4.50,-25.20, -0.53,-55.91,3133.70; 31.33, -0.02, -0.84,  1.58,-32.21,-39.74,-87.05,-28.07, -0.66, -9.71, 74.43,195.64
Uptime 00:01:07, 24.27, -0.26,  0.08,  0.12,-59.14,-22.20, 21.08, 15.79,-60.95, -7.50,-56.32,3136.35; 31.24, -0.16, -0.25,  0.67, 67.12, 34.90, 36.18,-19.68,-12.81, -1.62, 77.51,200.20
Uptime 00:01:07, 24.41,  0.84,  0.20,  1.36, 39.99,-27.10,  1.05,  7.29, 31.46, -2.19,-59.22,3136.49; 31.33, -0.03, -0.43,  1.69,  2.75, -5.68, 68.18,-14.26, -0.96, -1.53, 75.27,208.92
Uptime 00:01:08, 24.36, -0.07,  0.05,  0.62, 48.22,  4.92, 80.93,  4.32, -6.35,  3.89,-57.30,3146.68; 31.24,  0.35, -0.23,  1.09,-37.83, 19.59,-126.35,-11.36, 17.59, -6.40, 75.83,193.00
Uptime 00:01:08, 24.32, -0.02,  0.33,  1.05,-42.07,  2.77, 64.50, 17.68, -0.81, -1.03,-55.80,3154.81; 31.33,  0.07, -0.60,  1.36, 30.58, 61.49, 40.69,-23.82,  2.57, -2.97, 81.85,198.13
Uptime 00:01:08, 24.32,  0.19, -0.05,  1.20, 29.35,-46.78, 59.14, -2.46,  9.16,  2.62,-60.73,3162.38; 31.33,  0.09, -0.28,  1.47,-82.47, 13.04,132.93,-10.81,  3.48,-13.47, 81.78,215.15
Uptime 00:01:08, 24.36,  0.76,  0.06,  0.78,-51.19,-55.59, 40.18,  3.31, 44.17, -3.68,-67.26,3167.44; 31.19,  0.34, -0.81,  0.88, 44.84,-15.33, 58.05,-40.74, 15.72, -8.48, 77.94,222.46
Uptime 00:01:08, 24.22,  0.26,  0.17,  1.37,-33.07, 39.88, 38.52,  6.89, 10.73, -7.55,-61.21,3172.30; 31.24,  0.06, -0.05,  1.45,-24.88,-68.74,-133.80, -1.93,  2.32,-11.42, 67.84,205.60
Uptime 00:01:08, 24.27,  0.16,  0.20,  0.84,-34.44, -3.45, -3.44, 12.93, 10.53,-11.46,-60.63,3171.86; 31.19, -0.04, -0.43,  0.94, 65.27, 38.33,-52.89,-24.53, -2.26, -3.50, 71.34,198.83
Uptime 00:01:08, 24.32,  0.27,  0.01,  1.21,-12.46,-25.33, 36.90,  0.31, 12.70,-12.77,-62.80,3176.51; 31.28, -0.00, -0.35,  1.28,-46.73,-14.72, 52.72,-15.14, -0.01, -9.50, 68.10,205.47
Uptime 00:01:08, 24.27,  0.65, -0.03,  0.84, 17.24, 25.96, 38.38, -1.65, 37.61,-10.42,-59.09,3181.34; 31.28,  0.13, -0.32,  1.19, 18.09, 20.15,-11.44,-14.94,  5.86, -7.37, 69.11,204.03
Uptime 00:01:09, 24.41, -0.02,  0.16,  1.24,-10.58,-12.70, 63.14,  7.38, -0.93,-11.39,-59.48,3189.43; 31.28, -0.10, -0.12,  1.29,-25.36,-18.80,-162.50, -5.27, -4.63,-10.51, 65.46,183.23
Uptime 00:01:09, 24.27,  0.12,  0.09,  1.09,  2.06,  0.43, 27.78,  4.43,  6.00,-10.82,-58.36,3192.93; 31.28, -0.11, -0.42,  1.27, 13.62, 52.12,  1.98,-18.28, -4.74, -8.99, 70.68,183.48
Uptime 00:01:09, 24.32, -0.06,  0.04,  1.11,  8.51,-29.95, 13.11,  1.88, -3.22, -9.50,-60.88,3194.60; 31.28,  0.24, -0.24,  1.33,-39.19, -6.75,140.93,-10.11, 10.01,-13.92, 68.22,201.52
Uptime 00:01:09, 24.41,  0.66,  0.01,  0.89, -5.57,-16.55, 45.78,  0.28, 36.70, -9.99,-62.44,3200.37; 31.38, -0.02, -0.42,  1.31, 26.42, -4.93, 19.80,-17.82, -0.97,-10.74, 66.27,204.02
Uptime 00:01:09, 24.41, -0.09,  0.09,  1.09, 44.29,  2.20, 60.01,  4.89, -4.76, -4.22,-60.83,3207.94; 31.38, -0.15, -0.44,  1.37,-23.13, 26.88,-183.56,-17.63, -5.84,-13.73, 68.38,180.89
Uptime 00:01:09, 24.41, -0.00,  0.33,  1.04,-23.17,-28.10, 45.94, 17.60, -0.26, -6.69,-63.13,3213.82; 31.19, -0.06, -0.55,  1.33, 22.48, 38.01,  1.13,-22.50, -2.52,-11.09, 71.83,181.03
Uptime 00:01:09, 24.36,  0.18,  0.08,  1.03, 46.78,-36.90, 31.56,  4.18, 10.17, -0.70,-66.63,3217.79; 31.28,  0.46, -0.29,  1.42,-49.31,-33.06,155.14,-11.09, 17.67,-17.18, 65.96,200.58
Uptime 00:01:09, 24.32,  0.54,  0.24,  0.78,-49.46, -0.15, 76.06, 14.38, 33.51, -6.50,-65.98,3227.38; 31.38,  0.25, -0.34,  1.20, 38.63, -4.52,  5.27,-15.61, 11.24,-12.38, 63.85,201.24
Uptime 00:01:10, 24.36, -0.11, -0.11,  1.36, 76.26, -7.11, 27.98, -4.79, -4.52,  3.10,-65.47,3230.96; 31.38, -0.40, -0.76,  1.48,-42.12, -5.01,-139.97,-26.55,-13.49,-17.94, 62.22,183.33
Uptime 00:01:10, 24.32,  0.04,  0.32,  0.97,-41.95,-41.59, 71.02, 18.33,  2.45, -1.82,-69.38,3239.98; 31.28, -0.20, -0.62,  0.95, 42.25, 57.36, 25.11,-32.37, -9.98,-13.02, 68.26,186.49
Uptime 00:01:10, 24.46,  0.38, -0.14,  1.02,-23.80,-46.65, 35.49, -7.14, 20.14, -4.84,-74.11,3244.41; 31.33, -0.02, -0.45,  1.30,-42.76, 30.47,129.33,-18.97, -0.64,-18.41, 70.67,202.79
Uptime 00:01:10, 24.46,  0.53,  0.12,  0.81,-10.36, 22.74, 70.18,  7.06, 32.91, -5.90,-70.44,3253.40; 31.24,  0.06, -0.34,  1.24, 34.42, -6.72, 26.70,-15.43,  2.74,-14.04, 68.35,206.21
Uptime 00:01:10, 24.46,  0.23,  0.09,  0.84, 21.99, 43.24,110.04,  5.69, 15.31, -2.94,-63.95,3267.37; 31.38, -0.04, -0.11,  1.07,-80.59, 39.88,-67.33, -5.95, -1.88,-23.91, 71.99,197.65
Uptime 00:01:10, 24.41,  0.04,  0.01,  1.01, 21.94,-47.94, 86.67,  0.63,  2.54, -0.15,-68.64,3278.29; 31.33, -0.01, -0.33,  1.18, 24.97,  5.49,-57.34,-15.43, -0.61,-20.65, 71.24,190.43
Uptime 00:01:10, 24.41,  0.14,  0.25,  0.78, -7.54, 44.41, 40.40, 17.23,  9.50, -0.75,-61.89,3283.46; 31.33,  0.07,  0.09,  1.23, 53.76, 34.04, 33.45,  4.18,  3.20,-13.41, 74.02,194.71
Uptime 00:01:11, 24.36,  0.40, -0.10,  1.01,-23.17,-45.13, 73.01, -5.18, 21.67, -3.70,-66.66,3292.66; 31.33,  0.14, -0.66,  1.14,-13.11,-16.09,104.03,-29.89,  5.98,-15.36, 70.43,207.82
Uptime 00:01:11, 24.41,  0.43,  0.25,  0.85, 32.02, 40.78,145.24, 14.64, 25.62,  0.68,-60.72,3311.25; 31.33,  0.19, -0.34,  0.89, 26.93, 54.26, -0.09,-20.75, 11.29,-12.09, 75.61,207.81
Uptime 00:01:11, 24.36, -0.17,  0.06,  1.28,  4.32,-26.27, 62.55,  2.44, -7.47,  1.25,-62.60,3319.13; 31.33,  0.09, -0.47,  1.26, -0.79, 18.46,-38.32,-20.48,  3.68,-12.36, 76.30,202.98
Uptime 00:01:11, 24.41,  0.05,  0.30,  0.99,  7.71,-27.48, 85.13, 17.00,  2.67,  2.52,-64.79,3329.86; 31.42, -0.29, -0.44,  0.99, 39.65, 57.81, 42.20,-22.99,-15.00, -7.67, 82.21,208.30
Uptime 00:01:11, 24.46,  0.22, -0.02,  1.19, -2.75,-40.27, 39.40, -1.17, 10.36,  2.10,-68.76,3334.90; 31.42, -0.19, -0.23,  1.12,-34.09, 56.07,174.63,-11.32, -9.39,-12.02, 87.79,230.65
Uptime 00:01:11, 24.46,  0.32,  0.12,  0.83,  8.06,-10.50, 75.66,  7.91, 20.84,  3.21,-69.10,3344.44; 31.33,  0.18, -0.19,  1.24, 24.03,  4.46, 57.07, -8.82,  8.06, -8.99, 86.42,237.84
Uptime 00:01:11, 24.36,  0.04,  0.02,  1.17, 22.26,-21.95, 55.08,  1.07,  2.05,  5.92,-70.47,3351.38; 31.33, -0.43, -0.28,  1.36,-40.12,-28.03,-118.34,-11.27,-17.36,-13.99, 81.58,222.93
Uptime 00:01:11, 24.46,  0.00,  0.17,  0.96,-30.93,-11.77, 50.64, 10.08,  0.20,  2.12,-70.54,3357.86; 31.33, -0.24, -0.50,  1.06, 23.03, 30.58,  3.10,-24.64,-11.44,-11.31, 84.01,223.32
Uptime 00:01:12, 24.32,  0.39,  0.02,  1.10, -2.36,-35.13,-41.15,  0.74, 19.60,  1.80,-73.86,3352.67; 31.38,  0.04, -0.04,  1.32,-13.16, 24.72,113.86, -1.53,  1.58,-12.74, 85.35,237.67
Uptime 00:01:12, 24.46,  0.38,  0.10,  0.77,-30.20, 24.23, 39.56,  6.58, 26.00, -1.83,-69.91,3357.66; 31.28,  0.27, -0.45,  1.13, 46.98, -2.22,-16.49,-21.04, 12.34, -7.11, 83.12,235.59
Uptime 00:01:12, 24.51,  0.34,  0.05,  1.27, 12.52, -5.89, -4.84,  2.01, 14.75, -0.17,-69.55,3357.03; 31.42, -0.43, -0.63,  1.26,-19.48,-22.92,-188.53,-25.21,-17.14, -9.93, 78.91,211.27
Uptime 00:01:12, 24.46,  0.13,  0.24,  1.19, -6.00,-47.43, 67.46, 11.43,  6.26, -0.68,-74.14,3365.53; 31.47,  0.05, -0.47,  1.36, 11.77, 10.56,-41.42,-19.08,  2.10, -8.66, 78.59,206.05
Uptime 00:01:12, 24.41,  0.41, -0.05,  1.00,-34.38,  3.47,-74.76, -2.85, 22.16, -5.04,-72.66,3355.96; 31.38, -0.04, -0.19,  1.25,-21.17, -2.98,104.70, -8.46, -1.71,-11.31, 76.68,219.46
Uptime 00:01:12, 24.46,  0.60,  0.07,  0.86,-30.18,-20.99, 96.00,  3.83, 34.70, -8.59,-74.50,3368.06; 31.38,  0.23, -0.47,  0.94,-20.68, 32.24,-55.30,-25.71, 12.53,-14.16, 78.88,212.49
Uptime 00:01:12, 24.41,  0.18,  0.06,  1.21,-40.15, 17.10, 11.48,  3.01,  8.36,-13.31,-71.06,3369.51; 31.38,  0.02, -0.01,  1.21, -1.43,-17.21,-161.11, -0.54,  1.14,-14.06, 75.15,192.19
Uptime 00:01:12, 24.51, -0.06,  0.38,  1.05, 14.89, 38.46, 40.14, 19.72, -3.16,-10.68,-64.49,3374.93; 31.38, -0.08, -0.58,  0.88, 55.15, 41.59, 23.62,-33.41, -4.53, -7.15, 79.24,195.38
Uptime 00:01:13, 24.46,  0.31, -0.05,  1.26,-34.00,-80.41,  3.66, -2.31, 13.64,-14.71,-73.40,3375.39; 31.38,  0.00, -0.62,  1.48,-65.74,-13.48, 51.36,-22.61,  0.15,-15.58, 75.99,201.85
Uptime 00:01:13, 24.41,  0.25, -0.01,  0.28, 25.39, 56.57,160.64, -0.85, 41.41,-11.30,-65.78,3395.63; 31.38, -0.07, -0.53,  0.72, 20.98,  4.73,-49.59,-36.06, -4.31,-13.40, 75.14,195.60
Uptime 00:01:13, 24.46, -0.04, -0.02,  1.59, 26.22,-13.16, 60.84, -0.69, -1.36, -7.80,-66.09,3403.42; 31.28, -0.15, -0.72,  1.53,-13.52, 25.02,-63.56,-24.94, -5.10,-15.32, 76.88,187.46
Uptime 00:01:13, 24.41,  0.04, -0.10,  0.72, 14.66,-29.52,-45.67, -7.92,  2.77, -5.99,-68.46,3397.66; 31.33, -0.45,  0.03,  1.19,-17.66, 72.15,162.81,  1.39,-20.88,-17.17, 84.67,207.98
Uptime 00:01:13, 24.36,  0.54,  0.09,  0.87,-18.50,-51.16, 28.95,  4.96, 31.84, -8.06,-74.05,3401.31; 31.38,  0.31, -0.67,  1.31,  8.14,-25.61, 31.07,-26.37, 11.73,-16.35, 79.58,211.89
Uptime 00:01:13, 24.51,  0.22,  0.09,  1.12, 26.93, 27.12, 49.89,  4.34, 11.17, -4.43,-69.39,3407.69; 31.42, -0.40, -0.40,  1.44, -0.93,  4.33,-196.38,-15.08,-14.88,-16.44, 78.83,186.75
Uptime 00:01:13, 24.36, -0.02,  0.24,  1.00,-37.31,  3.38, 55.05, 13.51, -1.01, -8.68,-67.57,3414.63; 31.38, -0.06, -0.56,  1.05, 28.69, 52.24, 11.45,-28.20, -2.94,-13.13, 83.76,188.20
Uptime 00:01:13, 24.51,  0.29,  0.12,  1.19, -4.85,-52.36, 27.66,  5.57, 13.52, -9.01,-73.10,3418.20; 31.47, -0.27, -0.14,  1.52,-15.51,-33.57, 93.91, -5.20, -9.97,-14.92, 78.07,200.22
Uptime 00:01:14, 24.41,  0.47, -0.02,  0.71,-16.58, -7.65,131.22, -1.33, 33.74,-10.89,-73.25,3434.60; 31.33,  0.29, -0.54,  0.56, 17.01, 42.97, -6.20,-40.53, 20.34,-13.33, 81.41,199.44
Uptime 00:01:14, 24.46, -0.04,  0.26,  1.32, 12.66,-23.83, 12.70, 10.91, -1.87, -8.89,-74.69,3436.20; 31.33,  0.40, -0.10,  1.42, -5.52,-22.17,-88.89, -3.71, 15.92,-13.82, 76.73,188.24
Uptime 00:01:14, 24.55, -0.07,  0.33,  0.84, -3.74,-13.02, 70.88, 21.45, -4.67, -8.75,-74.74,3445.28; 31.42,  0.20, -0.34,  0.65,103.87, 23.42, 55.65,-26.43, 15.03, -1.04, 77.83,195.36
Uptime 00:01:14, 24.55,  0.44, -0.02,  1.02,-24.91,-36.59,  9.33, -0.94, 23.21,-11.67,-78.23,3446.45; 31.42,  0.16, -0.55,  1.39,-49.36,-23.51, 77.76,-21.50,  5.91, -7.55, 73.25,205.16
Uptime 00:01:14, 24.51,  0.23,  0.09,  0.54, 17.74, 20.60,139.45,  8.75, 22.67, -9.07,-74.57,3464.02; 31.33, -0.10, -0.37,  0.98, 22.90,  1.60,-16.18,-20.45, -5.69, -4.98, 72.10,203.12
Uptime 00:01:14, 24.55, -0.10, -0.05,  1.20, 12.28, 17.71, 23.65, -2.39, -4.56, -7.40,-70.77,3467.05; 31.42, -0.17, -0.88,  1.44,  9.82,-24.31,-114.49,-31.14, -5.67, -4.27, 67.72,188.46
Uptime 00:01:14, 24.51, -0.06,  0.31,  0.41,  7.80,-25.89, -9.18, 36.13, -6.24, -5.56,-72.43,3465.89; 31.42, -0.50, -0.18,  1.24,-40.78, 64.32, 77.50, -7.49,-21.73, -9.37, 74.74,198.23
Uptime 00:01:14, 24.46,  0.61, -0.13,  1.19,  5.85,-27.05, 13.22, -5.65, 27.12, -4.84,-74.86,3467.56; 31.42,  0.19, -0.63,  1.42, 10.40,  7.54, 81.92,-23.73,  7.01, -8.37, 74.04,208.55
Uptime 00:01:15, 24.51,  0.15,  0.14,  0.60, 28.64, 22.28, 79.53, 13.06, 13.25, -0.86,-70.81,3477.82; 31.33,  0.24, -0.33,  0.96,-29.75, 46.72,-88.05,-18.34, 13.31,-12.33, 78.20,197.19
Uptime 00:01:15, 24.51,  0.04,  0.14,  1.12,  3.70,-23.42, 67.13,  6.93,  1.87, -0.25,-72.32,3486.28; 31.42, -0.12, -0.29,  1.39, -5.51, 54.64, -6.21,-11.64, -4.79,-13.00, 83.47,196.41
Uptime 00:01:15, 24.46,  0.37,  0.02,  1.02,-34.43,-49.55, -3.31,  1.16, 19.72, -4.54,-77.49,3485.85; 31.28,  0.18, -0.08,  1.42,-32.78,-50.22,120.29, -3.26,  7.31,-16.91, 75.36,211.81
Uptime 00:01:15, 24.51,  0.78,  0.11,  0.75,-50.93,-23.59,112.40,  5.65, 45.88,-10.63,-79.77,3500.01; 31.38,  0.49, -0.56,  0.69, 14.13, 22.68,-47.18,-33.26, 29.11,-15.50, 76.07,205.86
Uptime 00:01:15, 24.55, -0.03, -0.05,  1.15, -7.27, 83.51, -5.91, -2.70, -1.45,-11.37,-67.75,3499.26; 31.38,  0.04, -0.36,  1.54,-17.29,-29.56,-139.83,-13.18,  1.58,-17.60, 70.84,188.10
Uptime 00:01:15, 24.41, -0.22,  0.23,  0.20,  5.57,-33.40,-62.92, 37.15,-35.82, -9.70,-69.87,3491.21; 31.38, -0.41, -0.09,  1.11, 44.68, 10.76, 67.54, -4.46,-20.32,-11.74, 71.18,196.75
Uptime 00:01:15, 24.55,  0.88,  0.18,  1.19, -3.94,-61.22, -4.51,  6.87, 36.01, -9.86,-76.75,3490.64; 31.47,  0.29, -0.62,  1.36,-23.49,-25.18, 12.53,-24.13, 10.93,-14.89, 66.43,198.33
Uptime 00:01:15, 24.60,  0.19,  0.12,  0.85, 38.00, 72.49, 18.46,  7.78, 12.51, -4.81,-66.51,3492.97; 31.56, -0.42, -0.19,  1.54, -6.90,  1.28,-180.93, -6.80,-15.11,-15.58, 65.56,175.53
Uptime 00:01:16, 24.46, -0.09,  0.39,  0.89,-77.04,-21.43, 14.85, 23.55, -5.47,-13.91,-67.76,3494.87; 31.47,  0.10, -0.53,  0.85, 59.93, 54.59, 28.85,-31.91,  5.47, -8.38, 70.99,179.22
Uptime 00:01:16, 24.51,  0.43, -0.23,  1.02,-33.60,-49.14, -5.51,-11.56, 22.12,-18.01,-72.92,3494.17; 31.38, -0.07, -0.83,  1.52,-35.46,-30.52, 19.71,-28.80, -2.24,-13.17, 65.84,181.71
Uptime 00:01:16, 24.55,  0.23,  0.06,  0.39, 53.82, 31.45,132.53,  7.58, 30.56,-10.85,-68.19,3510.87; 31.47,  0.26, -0.40,  1.06, 23.44, -2.89,-43.48,-19.96, 12.80,-10.41, 63.91,176.23
Uptime 00:01:16, 24.51, -0.07,  0.10,  1.43,  6.06,  5.90, 46.40,  4.02, -2.98, -9.79,-66.02,3516.81; 31.47, -0.15, -0.71,  1.44, 11.97, 11.34,-52.58,-26.06, -5.44, -9.22, 64.17,169.50
Uptime 00:01:16, 24.46, -0.09, -0.06,  0.73, 16.95,-20.07,-15.88, -4.62, -7.33, -7.60,-67.04,3514.81; 31.47, -0.72, -0.15,  1.21,-36.52, 81.30,155.34, -6.21,-30.36,-13.67, 73.53,189.07
Uptime 00:01:16, 24.55,  0.63, -0.03,  0.98, -0.27,-43.68, 43.01, -1.70, 32.69, -7.51,-71.74,3520.23; 31.28,  0.41, -0.63,  1.27,  6.92, 15.36, 11.28,-25.50, 16.01,-13.06, 73.63,190.49
Uptime 00:01:16, 24.51,  0.03,  0.34,  1.23, 15.31, 40.61, 83.77, 15.49,  1.23, -5.13,-65.24,3530.95; 31.56, -0.32, -0.17,  1.41, 11.73,-11.30,-134.75, -6.56,-12.86,-11.45, 71.00,173.25
Uptime 00:01:16, 24.55, -0.18,  0.34,  1.03,-16.03,-28.32, 59.74, 17.71, -9.66, -6.65,-67.24,3538.48; 31.47, -0.34, -0.59,  1.14,  7.00,  6.43, 15.57,-26.22,-14.71,-10.89, 70.67,175.21
Uptime 00:01:17, 24.60,  0.41, -0.10,  1.14, -8.58,-67.51, 16.76, -4.69, 19.68, -7.70,-74.82,3540.64; 31.56, -0.28, -0.36,  1.29,-44.55, 38.82,111.98,-15.13,-12.02,-16.60, 74.40,189.65
Uptime 00:01:17, 24.65,  0.47,  0.15,  0.75,  0.14, 18.02, 81.24,  9.56, 31.77, -7.34,-71.73,3550.88; 31.52,  0.16, -0.43,  1.19, 30.52,  9.91, -8.98,-19.60,  7.18,-12.89, 74.00,188.52
Uptime 00:01:17, 24.60, -0.11,  0.17,  1.13, -4.38, 13.71, 61.11,  8.32, -5.26, -7.56,-68.50,3558.58; 31.33, -0.09, -0.20,  1.32,-49.49,-32.48,-126.73, -8.71, -3.79,-18.92, 68.58,172.55
Uptime 00:01:17, 24.65, -0.06, -0.01,  1.04, -8.21,-49.78, 37.56, -0.80, -3.34, -8.46,-73.31,3563.38; 31.56, -0.19, -0.52,  1.19, 30.09,  9.97,-30.69,-23.42, -8.23,-15.24, 68.63,168.63
Uptime 00:01:17, 24.60,  0.07,  0.17,  0.77,-19.69,  6.84,-24.23, 12.20,  5.36,-10.48,-71.11,3560.33; 31.52, -0.06, -0.42,  1.45,-34.55, 16.47, 80.64,-16.20, -2.22,-19.52, 69.33,178.79
Uptime 00:01:17, 24.60,  0.49, -0.02,  0.98,-12.78,-20.70, 21.54, -1.20, 26.35,-11.87,-72.77,3563.05; 31.52,  0.18, -0.90,  1.29, 29.00, 28.41, 55.47,-34.58,  6.67,-16.24, 71.32,185.78
Uptime 00:01:17, 24.65,  0.22,  0.28,  0.63, 21.67, 59.90,141.13, 22.48, 17.60, -8.47,-64.15,3581.11; 31.42, -0.03, -0.24,  1.14, -0.74, 52.56,  3.22,-11.70, -1.41,-16.24, 76.51,186.19
Uptime 00:01:17, 24.60, -0.17, -0.14,  1.04,  5.82,-18.49, 54.49, -7.73, -9.26, -7.73,-64.96,3587.98; 31.42, -0.15, -0.76,  1.27, 13.38, 18.09,-101.57,-30.82, -5.62,-14.88, 77.33,173.39
Uptime 00:01:18, 24.51,  0.02,  0.48,  0.85,-20.23,-30.41, 21.37, 29.68,  1.38, -9.48,-67.45,3590.67; 31.42, -0.28, -0.12,  1.19, 42.29,  1.89, 27.76, -5.50,-13.19, -9.47, 76.28,176.89
Uptime 00:01:18, 24.60,  0.66, -0.25,  1.20, 30.77,-34.70, 10.43,-10.18, 28.19, -5.64,-71.02,3592.00; 31.52,  0.30, -0.94,  1.33, 12.28, 53.39, 80.40,-34.68, 10.28, -8.44, 81.25,187.18
Uptime 00:01:18, 24.55,  0.30,  0.19,  0.54, -0.53, 63.59,106.53, 17.33, 27.73, -5.24,-62.30,3605.43; 31.52,  0.13, -0.38,  0.71, 22.19, -2.31,-41.34,-27.87,  9.50, -6.09, 79.15,181.97
Uptime 00:01:18, 24.60, -0.13,  0.08,  1.40, 53.68,-16.78, 40.67,  3.24, -5.15,  2.03,-63.17,3610.92; 31.42,  0.12, -0.63,  1.51, 32.60, -3.25,-59.83,-22.69,  4.02, -2.11, 77.05,173.89
Uptime 00:01:18, 24.65, -0.12,  0.35,  0.49,-31.28, -3.81, -6.76, 34.91,-11.47, -1.21,-62.15,3610.06; 31.42, -0.02, -0.15,  0.87, 62.52, 42.81, 71.83, -9.69, -1.49,  5.52, 80.87,183.01
Uptime 00:01:18, 24.55,  0.65, -0.07,  1.45,  5.06,-61.25, -0.17, -2.46, 24.24, -0.61,-68.95,3610.04; 31.56,  0.14, -0.87,  1.54,-29.02,-39.13, 57.05,-29.46,  4.60,  1.24, 74.33,190.20
Uptime 00:01:18, 24.60,  0.23,  0.21,  0.55, 26.31, 53.27,109.82, 19.20, 20.97,  3.11,-61.26,3624.20; 31.38,  0.32, -0.30,  1.07,  7.62, 13.17, -9.65,-15.12, 16.02,  1.88, 74.19,188.96
Uptime 00:01:19, 24.55, -0.12,  0.17,  1.20, 18.51,-28.15, 56.53,  7.80, -5.84,  5.49,-63.39,3631.33; 31.56, -0.13, -0.45,  1.33, 10.80,  8.65,-68.21,-18.51, -5.50,  2.80, 73.88,180.36
Uptime 00:01:19, 24.55,  0.03,  0.32,  0.74,-10.79, 16.12, 54.47, 23.53,  2.09,  4.52,-60.18,3638.19; 31.52, -0.15, -0.29,  0.84, 62.25, 53.65, 76.29,-18.78, -9.80, 10.06, 79.22,189.97
Uptime 00:01:19, 24.60,  0.35, -0.06,  1.22, -3.45,-34.04, 40.69, -2.86, 15.85,  3.94,-63.56,3643.40; 31.56, -0.19, -0.81,  1.47,-19.08,-33.41, 48.30,-28.78, -6.51,  6.89, 73.58,196.16
Uptime 00:01:19, 24.51,  0.33,  0.22,  0.75, 20.08, 33.21,106.90, 14.79, 22.76,  6.64,-58.64,3656.87; 31.47,  0.12, -0.36,  0.89, 21.90, 32.53, 20.08,-21.97,  7.15,  9.01, 75.98,198.69
Uptime 00:01:19, 24.65,  0.07,  0.23,  1.19,-26.21,-29.69, 40.41, 10.76,  3.09,  3.48,-61.20,3661.96; 31.56,  0.39, -0.33,  1.23, 10.45, 24.58,-82.98,-14.35, 16.98,  9.84, 77.16,188.23
Uptime 00:01:19, 24.69, -0.04,  0.39,  0.95, 14.90,-15.81, 74.53, 22.49, -2.23,  5.73,-61.92,3671.50; 31.56,  0.11, -0.16,  1.22, 26.00,  0.59, 27.01, -7.34,  5.06, 12.76, 75.59,191.69
Uptime 00:01:19, 24.65,  0.14,  0.08,  0.78, -8.36,-60.61, 55.71,  5.94, 10.27,  4.70,-68.37,3678.52; 31.47, -0.16, -0.30,  1.19,-31.08,-21.35,128.95,-13.99, -7.41,  8.38, 71.59,207.94
Uptime 00:01:19, 24.60,  0.73,  0.24,  0.84, -6.26,-21.16,109.19, 12.32, 39.82,  4.07,-70.45,3692.49; 31.56,  0.46, -0.48,  0.87, 41.61, 18.36, 16.06,-25.94, 24.92, 12.91, 71.96,209.99
Uptime 00:01:20, 24.69, -0.27,  0.22,  1.18, 35.48, 47.61, 22.55, 10.50,-12.53,  8.58,-62.91,3695.33; 31.56,  0.19, -0.44,  1.40, -0.13, 10.35,-91.40,-17.18,  7.51, 12.30, 71.65,198.48
Uptime 00:01:20, 24.69, -0.15,  0.27,  0.58, -5.16,-29.97, 28.06, 24.65,-13.18,  8.27,-65.09,3698.87; 31.56,  0.20, -0.23,  0.68, 18.92, 55.30, 73.33,-17.72, 15.56, 14.03, 76.73,207.71
Uptime 00:01:20, 24.74,  0.46,  0.03,  1.05,  1.99,-18.55, 35.39,  1.41, 23.70,  8.38,-66.61,3703.44; 31.56,  0.11, -0.87,  1.45,-35.58,-27.88, 99.43,-30.72,  3.62,  8.64, 71.60,220.54
Uptime 00:01:20, 24.69,  0.32,  0.09,  0.29, 39.25, 50.72,134.09, 12.25, 46.99, 13.30,-59.95,3720.33; 31.47,  0.01, -0.35,  1.06,  6.34, 20.58,-50.05,-18.39,  0.77,  8.88, 72.70,214.24
Uptime 00:01:20, 24.69, -0.09,  0.06,  1.25, -1.83,-14.38, 50.23,  2.53, -4.31, 12.86,-60.44,3726.66; 31.56, -0.38, -0.48,  1.36, -6.81, 38.84,-49.85,-18.68,-14.77,  7.49, 76.33,207.95
Uptime 00:01:20, 24.65,  0.23,  0.11,  1.25,-13.66,-53.33, -9.83,  4.98, 10.28, 10.99,-66.13,3725.40; 31.47, -0.48, -0.35,  1.36, 21.82, 51.97,132.82,-13.78,-18.64,  9.80, 81.70,224.96
Uptime 00:01:20, 24.60,  0.56, -0.05,  0.90,-17.17,-47.46, 39.28, -2.90, 31.87,  8.59,-71.30,3730.35; 31.56,  0.50, -0.46,  1.26,-27.02, 14.10, 43.65,-18.85, 20.25,  5.89, 81.40,230.46
Uptime 00:01:20, 24.65,  0.07,  0.21,  1.15, -6.14, 90.99, 51.31, 10.32,  3.54,  7.87,-58.71,3736.81; 31.56, -0.30,  0.16,  1.27, 45.62,  0.36,-175.42,  7.19,-13.29, 11.55, 80.08,208.35
Uptime 00:01:21, 24.69, -0.12,  0.18,  0.73, -6.78, -4.94,  9.86, 13.52, -9.35,  7.13,-57.97,3738.08; 31.52,  0.22, -0.38,  0.59, 48.00, 43.57, 38.41,-30.80, 17.10, 16.73, 83.60,213.27
Uptime 00:01:21, 24.69,  0.44,  0.15,  1.29,-17.66,-32.68, 39.25,  6.28, 18.62,  4.94,-61.22,3743.02; 31.56,  0.30, -0.70,  1.59,-46.52,-76.96, 54.79,-23.38,  9.65, 10.18, 72.24,220.17
Uptime 00:01:21, 24.79,  0.03,  0.06,  0.85, 51.02, 39.65, 57.88,  3.70,  2.08, 11.41,-54.99,3750.55; 31.52,  0.06,  0.10,  1.52,  7.18, 37.39,-165.71,  3.68,  2.21, 10.96, 75.51,198.63
Uptime 00:01:21, 24.60, -0.28,  0.23,  0.71,-20.65,  4.51, 23.07, 17.05,-20.48,  8.97,-52.92,3753.45; 31.52,  0.28, -0.72,  0.80, 62.42,  0.97, 61.04,-40.19, 14.51, 17.65, 73.83,206.32
Uptime 00:01:21, 24.69,  0.48,  0.24,  1.52, -7.86,-88.64, 33.97,  8.49, 17.34,  7.99,-63.15,3757.73; 31.52, -0.06, -0.86,  1.59,-68.03,-68.57, 74.32,-28.50, -1.97,  8.32, 63.93,215.69
Uptime 00:01:21, 24.69,  0.30, -0.25,  0.68, 89.54, 63.57, 48.84,-18.85, 22.18, 18.69,-54.36,3763.98; 31.52,  0.30, -0.06,  1.20, 26.97, -3.15,-178.32, -2.99, 14.13, 11.48, 61.97,192.86
Uptime 00:01:21, 24.65, -0.27,  0.28,  0.96,-37.77, 13.35, 41.17, 15.88,-15.35, 13.97,-51.32,3769.17; 31.52,  0.11, -1.03,  0.64, 55.07, -0.20, 49.01,-57.93,  5.30, 16.89, 60.60,199.04
Uptime 00:01:21, 24.60,  0.32,  0.24,  1.11,-48.17,-59.37, 68.55, 11.85, 15.78,  7.98,-57.94,3777.81; 31.61, -0.13, -0.51,  1.36,-82.94,-67.25, 84.37,-20.34, -5.06,  5.91, 51.18,209.67
