Time,A_Temp,A_AccX,A_AccY,A_AccZ,A_GyroX,A_GyroY,A_GyroZ,A_AccAngX,A_AccAngY,A_AngleX,A_AngleY,A_AngleZ;B_Temp,B_AccX,B_AccY,B_AccZ,B_GyroX,B_GyroY,B_GyroZ,B_AccAngX,B_AccAngY,B_AngleX,B_AngleY,B_AngleZ
Uptime 00:00:00, 27.47,  0.18,  0.16,  0.99, -6.19, 19.27,-73.00,  8.76, 10.27,-12.70, 39.91,-155.06; 32.08,  0.05,  0.08,  1.02,  2.21, 23.25,  8.74,  4.24,  2.88,  2.52, 25.50,  9.81
Uptime 00:00:00, 27.47,  0.11,  0.24,  1.01, -3.42, 22.14,-64.33, 13.34,  6.09,-12.61, 41.75,-163.23; 32.27, -0.05,  0.03,  1.04,  1.11,  5.58, -8.52,  1.48, -2.75,  2.64, 25.74,  8.73
Uptime 00:00:00, 27.42,  0.14,  0.15,  0.97,  0.71, 15.76,-61.29,  8.69,  7.83,-12.09, 42.75,-171.14; 32.27, -0.02, -0.00,  1.00,-10.26, -1.88,-14.83, -0.01, -1.36,  1.29, 25.02,  6.82
Uptime 00:00:00, 27.47,  0.13,  0.26,  1.03,-10.31, 31.87,-64.80, 13.91,  6.87,-12.86, 45.75,-179.43; 32.32,  0.01,  0.00,  1.01, -3.44, -2.72,-13.67,  0.10,  0.57,  0.83, 24.16,  5.07
Uptime 00:00:00, 27.47,  0.04,  0.17,  1.04, -3.33, 24.85,-55.61,  9.48,  2.35,-12.83, 47.91,-186.55; 32.46, -0.01, -0.03,  0.99, -7.44, -0.00, -6.81, -1.84, -0.68, -0.15, 23.69,  4.19
Uptime 00:00:00, 27.61,  0.14,  0.19,  1.00, -9.61, 10.88,-52.06, 10.68,  7.75,-13.58, 48.17,-193.26; 32.46, -0.00,  0.02,  0.98, -1.02, -3.17, -8.71,  1.31, -0.02, -0.25, 22.82,  3.07
Uptime 00:00:00, 27.56,  0.16,  0.10,  1.02, -6.48, 16.97,-56.61,  5.52,  8.68,-14.00, 49.15,-200.45; 32.55,  0.02, -0.03,  1.00, -2.73,  1.12, -5.45, -1.75,  0.95, -0.62, 22.49,  2.38
Uptime 00:00:00, 27.47,  0.08,  0.08,  0.99, -5.93, 29.46,-54.13,  4.85,  4.60,-14.37, 51.77,-207.38; 32.55, -0.07, -0.02,  0.97,  5.94,-14.40, -9.50, -1.32, -4.40,  0.11, 20.32,  1.16
Uptime 00:00:01, 27.66,  0.04,  0.03,  0.91, -4.02, 24.51,-68.62,  1.66,  2.22,-14.56, 53.81,-216.30; 32.65, -0.03,  0.04,  0.99, 23.40,-31.03,-13.99,  2.46, -1.59,  3.14, 15.99, -0.66
Uptime 00:00:01, 27.56,  0.18,  0.16,  1.03, -8.49,  3.11,-76.15,  8.88,  9.79,-15.15, 52.92,-225.97; 32.65,  0.09,  0.10,  1.01, -6.78, 23.14, -1.56,  5.59,  5.30,  2.34, 18.44, -0.86
Uptime 00:00:01, 27.56,  0.02,  0.14,  1.06,  0.15, 30.86,-59.17,  7.38,  1.09,-14.68, 55.74,-233.61; 32.60, -0.05,  0.02,  0.89,-15.31, 12.91,-20.48,  1.37, -3.41,  0.39, 19.78, -3.50
Uptime 00:00:01, 27.56,  0.19,  0.30,  0.98, -4.63,-30.60,-93.69, 16.83, 10.58,-14.63, 50.58,-245.60; 32.74, -0.02,  0.15,  1.07,  0.98, -3.20,  0.38,  8.17, -0.87,  0.66, 19.00, -3.45
Uptime 00:00:01, 27.47,  0.13,  0.10,  0.94, -5.42,  5.82,-100.42,  5.91,  7.88,-14.90, 50.14,-258.45; 32.69,  0.04, -0.09,  1.06, -1.85,-10.95,-10.63, -5.03,  2.18,  0.32, 17.20, -4.81
Uptime 00:00:01, 27.52,  0.20,  0.08,  1.05,  2.36, 40.48,-87.37,  4.46, 10.54,-14.21, 54.04,-269.72; 32.79, -0.03, -0.08,  0.94,  4.89,-35.91,-38.19, -4.62, -2.12,  0.84, 12.36, -9.74
Uptime 00:00:01, 27.66, -0.03,  0.16,  1.00,-11.93, 66.65,-74.64,  8.87, -1.71,-15.24, 61.29,-279.20; 32.79, -0.01,  0.11,  0.98, -7.36, -8.25,-32.02,  6.21, -0.43,  0.03, 11.09,-13.80
Uptime 00:00:01, 27.61,  0.00,  0.25,  0.97,-20.61, 17.47,-64.61, 14.59,  0.24,-17.23, 62.25,-287.47; 32.84, -0.02,  0.07,  1.01, 15.25, 15.46, -2.25,  4.10, -0.93,  2.02, 12.83,-14.09
Uptime 00:00:02, 27.56, -0.12,  0.30,  1.01,-17.48,-42.28,-74.56, 16.67, -6.30,-18.77, 55.75,-297.17; 32.88,  0.10,  0.12,  0.98,  5.76, -3.35, -8.17,  6.86,  5.67,  2.85, 12.03,-15.15
Uptime 00:00:02, 27.52,  0.52,  0.23,  0.98,-34.84,-83.63,-139.90, 11.75, 27.37,-22.50, 43.68,-314.93; 32.88,  0.04,  0.00,  1.01, 26.58,-51.49, 21.31,  0.04,  2.36,  6.11,  5.34,-12.45
Uptime 00:00:02, 27.56,  0.95,  0.25,  0.69,-73.88,112.04,-172.90, 11.79, 52.36,-31.01, 55.70,-336.89; 32.98,  0.35,  0.23,  0.82,-18.03, 14.47,-42.89, 14.34, 22.12,  4.03,  6.59,-17.89
Uptime 00:00:02, 27.52,  0.25, -0.21,  0.90,-28.45, 54.82,-159.29,-12.88, 15.08,-34.27, 61.27,-357.60; 32.98,  0.20, -0.04,  0.86,-14.60,  3.90,-98.66, -2.90, 12.76,  2.03,  6.70,-30.72
Uptime 00:00:02, 27.56,  0.08,  0.01,  1.03,-12.51, -4.97,-144.91,  0.56,  4.22,-35.14, 59.33,-376.15; 32.98,  0.09,  0.21,  0.93,-40.03,-43.04,-77.97, 12.64,  5.52, -2.78,  1.05,-40.70
Uptime 00:00:02, 27.61,  0.56,  0.14,  1.13,-13.67, 53.26,-152.62,  6.24, 26.23,-36.02, 64.25,-395.53; 32.98,  0.39,  0.12,  1.03, -9.98, -0.57,-95.94,  6.50, 20.55, -3.84,  0.55,-52.88
Uptime 00:00:02, 27.66,  0.12, -0.05,  0.81,  3.89,124.92,-100.51, -3.79,  8.68,-34.88, 78.59,-408.50; 32.98, -0.22, -0.19,  0.89,-23.01,-15.99,-153.20,-11.79,-13.52, -6.91, -1.21,-72.65
Uptime 00:00:02, 27.61, -0.09,  0.07,  1.11, 38.26,  1.12,-123.00,  3.37, -4.78,-29.32, 77.25,-424.24; 33.02,  0.17, -0.03,  1.04,-12.61, 14.41,-101.26, -1.89,  9.22, -8.39,  0.44,-85.61
Uptime 00:00:03, 27.66,  0.04,  0.47,  1.03,-41.00, 36.45,-119.72, 24.81,  2.09,-33.46, 80.31,-439.81; 33.07,  0.03,  0.35,  1.11, 29.10, 33.48,-117.26, 17.30,  1.48, -4.17,  4.66,-100.85
Uptime 00:00:03, 27.61, -0.28, -0.04,  0.74, 17.58,-37.58,-174.18, -2.92,-20.36,-30.66, 74.43,-461.93; 33.07, -0.05,  0.02,  0.79,-33.82,-48.89,-111.84,  1.25, -3.38, -8.27, -1.45,-115.05
Uptime 00:00:03, 27.66,  0.69,  0.35,  1.52,-14.32, 33.38,-133.09, 11.69, 23.85,-31.59, 76.62,-478.83; 33.16,  0.31,  0.26,  1.47, 18.81, 13.77,-52.97,  9.83, 11.65, -5.56,  0.06,-121.78
Uptime 00:00:03, 27.61, -0.17,  0.09,  0.56, -9.06, 97.78,-86.06,  8.37,-16.45,-31.96, 87.97,-490.10; 33.12,  0.19,  0.12,  0.56,-21.13,-46.69,-75.07, 11.56, 18.09, -7.93, -6.30,-131.61
Uptime 00:00:03, 27.56, -0.25,  0.18,  1.20, 34.45, 97.91,-68.68,  8.24,-11.55,-26.83, 98.72,-498.89; 33.07, -0.26, -0.14,  1.19,  2.64,-15.27,-90.81, -6.68,-12.36, -7.58, -7.84,-143.24
Uptime 00:00:03, 27.61,  0.03,  0.47,  0.95,-37.50,-26.88,-73.84, 26.59,  1.80,-30.43, 93.37,-508.27; 33.21,  0.12,  0.20,  0.72, 15.68, 33.84,-37.27, 15.19,  9.09, -5.17, -3.65,-147.97
Uptime 00:00:03, 27.66, -0.06, -0.65,  0.95, 49.60,-50.04,-131.20,-34.15, -3.01,-24.23, 85.23,-525.20; 33.07,  0.76, -0.83,  0.94,-18.81,  7.55, 43.13,-34.64, 31.10, -8.14, -3.25,-142.41
Uptime 00:00:03, 27.61, -0.08,  0.17,  1.10,-18.69, 77.24,-89.37,  8.58, -4.04,-25.92, 93.30,-536.64; 33.35,  0.07,  0.21,  1.25, 28.49, 14.29,  8.58,  9.52,  3.19, -4.21, -1.45,-141.31
Uptime 00:00:04, 27.66, -0.06,  0.23,  0.58,-23.26,-39.46,-39.09, 21.39, -5.24,-27.94, 86.51,-541.72; 33.12, -0.12, -0.15,  0.84,-29.86,-40.17,-59.88,-10.02, -8.17, -8.13, -6.38,-149.10
Uptime 00:00:04, 27.71,  0.11,  0.01,  1.16,  0.33,103.59,-86.48,  0.48,  5.43,-27.33, 97.57,-552.70; 33.31, -0.05, -0.09,  1.16, 12.09, 23.84,-53.65, -4.56, -2.47, -6.56, -3.23,-155.91
Uptime 00:00:04, 27.66, -0.37, -0.07,  0.99,-29.93, 45.24,-134.73, -3.96,-20.52,-30.62,101.70,-569.95; 33.26, -0.44, -0.29,  0.81, 18.38,  0.10,-64.68,-17.46,-27.26, -4.47, -2.61,-164.19
Uptime 00:00:04, 27.61, -0.10, -0.02,  0.98,  9.10,-83.32,-168.44, -1.37, -5.90,-28.87, 89.17,-591.84; 33.31,  0.23, -0.06,  1.02,-33.60,  7.75, 26.73, -3.22, 12.55, -8.72, -1.82,-160.71
Uptime 00:00:04, 27.66,  0.47, -0.06,  0.97,-23.13,  9.43,-155.89, -3.12, 25.66,-31.26, 88.05,-611.80; 33.31, -0.03, -0.29,  0.99, 21.43, 21.28,-13.87,-16.39, -1.43, -6.19,  0.91,-162.49
Uptime 00:00:04, 27.71,  0.25, -0.17,  1.12,-17.99, 42.60,-106.30, -8.23, 12.62,-33.04, 91.34,-625.30; 33.31,  0.04, -0.16,  0.87, 21.62,-41.17,-78.75,-10.33,  2.31, -3.58, -4.28,-172.49
Uptime 00:00:04, 27.66, -0.39, -0.10,  0.87, -7.77, 72.86,-68.80, -5.97,-24.09,-33.48, 99.21,-634.17; 33.40, -0.14,  0.16,  1.08,  8.14,-48.84,-59.64,  8.58, -7.14, -2.31,-10.22,-180.18
Uptime 00:00:05, 27.71, -0.04, -0.16,  1.10,  7.49, 50.27,-59.78, -8.01, -2.06,-32.03,103.57,-641.83; 33.31, -0.11, -0.11,  0.87, -3.37, 16.51,-45.50, -6.92, -7.06, -2.83, -7.81,-186.01
Uptime 00:00:05, 27.66, -0.07,  0.16,  0.97, 16.78, 30.43,-68.71,  9.04, -4.00,-29.10,105.40,-650.62; 33.31, -0.15,  0.26,  1.04,  3.85, -2.29,-53.13, 13.70, -8.12, -2.01, -7.77,-192.81
Uptime 00:00:05, 27.71, -0.41, -0.05,  0.99, 11.57, 29.06,-58.07, -2.43,-22.46,-27.11,107.41,-658.11; 33.49, -0.03, -0.02,  0.97, -4.18, -4.55,-29.78, -1.13, -2.05, -2.52, -8.15,-196.65
Uptime 00:00:05, 27.66, -0.28,  0.15,  0.93, -3.15, -5.69,-54.41,  8.96,-16.70,-26.78,104.89,-665.02; 33.31, -0.29, -0.05,  1.05,  3.65, -6.83, -5.12, -2.81,-15.29, -2.07, -8.54,-197.30
Uptime 00:00:05, 27.66, -0.19, -0.02,  1.02,-19.26,-43.80,-65.54, -0.96,-10.68,-28.88, 97.04,-674.13; 33.40, -0.09, -0.12,  1.02,  7.51,-21.81,-11.93, -6.64, -5.19, -1.14,-11.23,-198.96
Uptime 00:00:05, 27.66, -0.01,  0.11,  1.02,-21.56, -3.00,-89.93,  5.98, -0.49,-30.93, 94.73,-685.82; 33.49, -0.08,  0.01,  0.97,  6.79,-22.68,-15.56,  0.65, -4.86, -0.24,-13.80,-200.98
Uptime 00:00:05, 27.71,  0.09,  0.12,  0.93,-21.04,-13.17,-130.61,  7.65,  5.32,-32.84, 91.05,-702.80; 33.35,  0.20,  0.05,  0.97,  1.66,-26.69,  0.06,  2.75, 11.42,  0.03,-17.15,-200.97
Uptime 00:00:05, 27.75,  0.35,  0.20,  1.04,-29.59, 31.85,-178.91, 10.24, 18.17,-35.81, 92.98,-726.42; 33.49,  0.19,  0.16,  1.00, 13.42,-21.59,-34.45,  9.01, 10.84,  1.95,-19.82,-205.52
Uptime 00:00:06, 27.71,  0.51,  0.13,  0.84,-57.30, 11.90,-216.16,  7.37, 30.74,-42.30, 92.04,-754.74; 33.45,  0.24,  0.21,  0.88,-30.21,-45.03,-108.92, 13.11, 14.76, -1.71,-25.50,-219.79
Uptime 00:00:06, 27.75, -0.01,  0.02,  0.93,-19.50, 17.53,-182.68,  1.00, -0.48,-43.92, 92.44,-778.49; 33.45,  0.24,  0.25,  0.95,-46.31,-21.03,-98.14, 14.58, 13.80, -7.28,-27.94,-232.55
Uptime 00:00:06, 27.71,  0.65,  0.07,  1.14,-35.94, 45.93,-163.37,  3.03, 29.43,-47.67, 95.99,-800.21; 33.45,  0.57, -0.00,  1.08,  9.28, 40.64,-116.71, -0.12, 27.79, -5.93,-22.64,-248.07
Uptime 00:00:06, 27.66,  0.07,  0.15,  0.72,  6.78,102.75,-122.96, 11.78,  5.58,-45.61,107.15,-816.32; 33.54,  0.03,  0.26,  0.98,-21.25,-11.88,-140.94, 14.74,  1.76, -8.25,-23.75,-266.53
Uptime 00:00:06, 27.80,  0.03, -0.17,  0.91, 17.14, 10.34,-129.40,-10.51,  1.66,-42.72,106.29,-833.14; 33.45,  0.32, -0.20,  1.02,-10.55,-12.51,-95.03,-10.62, 17.19, -9.64,-25.21,-278.89
Uptime 00:00:06, 27.75, -0.05,  0.11,  1.07,  9.91,  1.53,-124.61,  5.82, -2.73,-40.47,104.42,-849.59; 33.54, -0.13, -0.03,  1.07, 11.24,-20.42,-103.36, -1.77, -7.16, -8.03,-27.21,-292.53
Uptime 00:00:06, 27.71, -0.06,  0.09,  0.95,-10.17, 23.30,-153.05,  5.27, -3.83,-40.85,105.38,-869.49; 33.54, -0.04,  0.04,  0.92, 13.28, -8.86,-130.90,  2.32, -2.37, -6.13,-27.74,-309.55
Uptime 00:00:06, 27.75, -0.24, -0.03,  0.79, 15.84,-44.02,-178.01, -2.35,-17.05,-38.01, 97.87,-893.16; 33.54,  0.34,  0.34,  1.05,-16.69,-67.36,-78.45, 17.04, 16.98, -7.84,-36.31,-319.98
Uptime 00:00:07, 27.71,  0.73,  0.11,  1.21, -9.79, 36.24,-159.42,  4.37, 31.03,-38.41, 99.91,-913.89; 33.49,  0.10, -0.10,  1.16, -6.95,  1.54,-64.54, -4.80,  5.04, -8.66,-35.49,-328.37
Uptime 00:00:07, 27.75,  0.08,  0.31,  0.93,-34.55,  9.61,-95.52, 18.16,  4.52,-41.68, 99.04,-926.30; 33.45,  0.11, -0.03,  0.88, 16.21,-15.94,-81.23, -1.93,  7.38, -6.46,-36.96,-338.93
Uptime 00:00:07, 27.71,  0.14, -0.09,  0.93, 28.52, 77.06,-77.00, -5.63,  8.79,-37.25,106.93,-936.55; 33.45,  0.14,  0.02,  1.07,-25.25, 14.62,-39.21,  1.00,  7.48, -9.60,-34.46,-344.14
Uptime 00:00:07, 27.75, -0.35,  0.22,  1.16, -0.81,-22.39,-60.42, 10.23,-16.65,-36.40,102.27,-944.40; 33.59,  0.30, -0.03,  1.19, -2.17,-49.47,-63.64, -1.53, 13.87, -9.72,-40.35,-352.42
Uptime 00:00:07, 27.71,  0.18,  0.24,  1.08,-33.24,  8.94,-91.64, 12.08,  9.32,-39.70,101.19,-956.41; 33.49,  0.18, -0.04,  1.09, 23.83,  9.00,-84.77, -2.01,  9.41, -6.51,-38.58,-363.52
Uptime 00:00:07, 27.75, -0.23,  0.06,  0.75,-16.90, -0.79,-129.32,  4.02,-16.94,-41.03, 99.40,-973.61; 33.49, -0.20, -0.10,  0.78, 25.71, -4.94,-46.61, -7.12,-14.40, -3.17,-38.16,-369.72
Uptime 00:00:07, 27.71,  0.46,  0.04,  1.11, -4.89, 10.78,-142.07,  2.08, 22.47,-40.79, 98.35,-992.22; 33.49, -0.13, -0.03,  1.12,-13.44, 67.54, -6.48, -1.63, -6.37, -4.86,-28.60,-370.57
Uptime 00:00:08, 27.61,  0.16,  0.11,  0.94,-31.07, -9.61,-94.45,  6.66,  9.76,-43.80, 94.96,-1004.50; 33.49,  0.18, -0.12,  1.00, 16.41,-23.06,-14.43, -6.99, 10.33, -2.81,-31.17,-372.45
Uptime 00:00:08, 27.80,  0.33, -0.03,  1.01, -3.74, 42.13,-95.31, -1.59, 18.30,-43.44, 98.15,-1017.08; 33.68,  0.17, -0.03,  1.03, -0.69,  3.05,-27.74, -1.80,  9.23, -2.88,-30.34,-376.11
Uptime 00:00:08, 27.75,  0.19, -0.05,  0.96,  6.24, 58.56,-69.23, -2.68, 11.14,-41.83,103.42,-1026.08; 33.59, -0.08,  0.05,  1.00,-15.50, -9.58,-31.00,  2.72, -4.84, -4.74,-30.86,-380.14
Uptime 00:00:08, 27.71,  0.35,  0.00,  1.02, -6.74,-21.00,-108.94,  0.05, 19.00,-41.87, 98.24,-1040.57; 33.59,  0.05, -0.04,  0.98,  7.88, 10.64,-16.36, -2.28,  3.07, -3.67,-28.91,-382.31
Uptime 00:00:08, 27.66, -0.03, -0.01,  1.02,  1.81, 91.40,-109.48, -0.80, -1.77,-40.82,107.95,-1054.80; 33.68,  0.05, -0.12,  1.06, 15.42,-19.85,-53.96, -6.52,  2.82, -1.76,-30.92,-389.33
Uptime 00:00:08, 27.71,  0.07,  0.04,  0.90, 12.97,  7.04,-94.45,  2.48,  4.21,-38.30,106.60,-1067.08; 33.68, -0.05, -0.01,  1.00, -4.53, -0.11,-63.56, -0.65, -2.58, -2.32,-30.27,-397.59
Uptime 00:00:08, 27.75, -0.25,  0.27,  0.96, 12.91, -8.27,-121.17, 15.39,-13.99,-35.54,103.67,-1083.19; 33.64,  0.05,  0.17,  1.02,-15.19,-52.65,-28.57,  9.56,  2.81, -4.06,-36.58,-401.39
Uptime 00:00:08, 27.71,  0.35,  0.05,  1.13,-25.35, 22.28,-105.55,  2.57, 17.20,-38.01,104.10,-1096.92; 33.64,  0.00, -0.07,  0.97, -7.11,-17.84,-49.74, -4.30,  0.15, -4.97,-38.12,-407.86
Uptime 00:00:09, 27.75,  0.02,  0.09,  0.82,-13.70,-19.52,-114.76,  6.56,  1.53,-38.88, 99.48,-1111.95; 33.64,  0.10, -0.07,  0.85,  2.47,-37.88,-27.64, -4.43,  6.82, -4.64,-42.36,-411.48
Uptime 00:00:09, 27.71,  0.57,  0.10,  1.12,-36.69, 60.05,-99.87,  4.60, 27.00,-42.79,104.77,-1125.23; 33.73,  0.22,  0.01,  1.00,  3.43, 45.16,  4.84,  0.54, 12.11, -4.09,-35.87,-410.84
Uptime 00:00:09, 27.75,  0.15,  0.27,  0.86,-26.49,  7.73,-114.12, 17.31,  9.15,-44.99,103.49,-1140.18; 33.64,  0.14,  0.10,  1.00, -2.75,-35.99,-62.61,  5.58,  7.69, -4.25,-39.93,-419.04
Uptime 00:00:09, 27.80,  0.23,  0.10,  0.99,-23.26, 19.47,-123.11,  5.60, 13.29,-46.94,103.63,-1156.19; 33.64,  0.23, -0.02,  0.93, -6.79,-18.37,-60.66, -1.08, 13.73, -5.05,-41.74,-426.92
Uptime 00:00:09, 27.85,  0.06,  0.09,  1.04, -3.01, 19.70,-134.24,  4.81,  3.09,-46.30,104.07,-1174.04; 33.64,  0.31,  0.02,  1.01,-15.76,-22.92,-49.61,  1.24, 16.93, -6.98,-44.23,-433.52
Uptime 00:00:09, 27.71,  0.15,  0.14,  1.12, -8.80, 36.11,-120.79,  7.22,  7.58,-46.35,106.43,-1189.74; 33.73,  0.26, -0.04,  1.02,-11.31, 14.70,-49.70, -2.06, 14.19, -8.32,-41.76,-439.98
Uptime 00:00:09, 27.66,  0.11,  0.13,  0.94,-14.74, 35.85,-126.62,  7.62,  6.65,-47.18,108.81,-1206.46; 33.73,  0.12,  0.02,  0.88, -5.19,  2.90,-59.81,  1.10,  7.59, -8.80,-40.70,-447.88
Uptime 00:00:09, 27.85,  0.00, -0.04,  1.00,  2.20, 48.33,-96.12, -2.27,  0.09,-46.00,112.79,-1218.95; 33.73,  0.16, -0.02,  1.02,  6.26, 10.71,-62.89, -1.34,  9.03, -7.86,-38.70,-456.05
Uptime 00:00:10, 27.75, -0.27,  0.00,  1.01,  1.94, 33.20,-63.48,  0.22,-14.72,-44.83,115.09,-1227.27; 33.73,  0.02,  0.05,  0.96, -9.24, 12.90,-30.37,  2.87,  1.25, -8.83,-36.30,-460.03
Uptime 00:00:10, 27.71,  0.08,  0.08,  0.96, -5.96,-17.00,-67.13,  4.54,  4.61,-44.61,110.48,-1236.19; 33.68,  0.07,  0.02,  1.02,  2.06, -3.21,-41.27,  0.85,  3.66, -8.37,-36.07,-465.52
Uptime 00:00:10, 27.80,  0.04, -0.11,  1.02,  6.78, 60.63,-65.69, -5.97,  2.46,-42.98,115.95,-1244.73; 33.82,  0.11, -0.06,  1.03, 18.17, 12.41,-54.80, -3.26,  5.97, -5.95,-33.88,-472.64
Uptime 00:00:10, 27.75, -0.25,  0.08,  0.98,  1.37,-37.58,-45.55,  4.32,-14.43,-41.86,109.13,-1250.66; 33.78,  0.00, -0.01,  0.92, -3.33, -5.99,-21.70, -0.72,  0.27, -6.27,-33.97,-475.46
Uptime 00:00:10, 27.75,  0.07, -0.06,  1.00,-11.87, -0.15,-37.51, -3.69,  3.93,-42.64,106.85,-1255.64; 33.82,  0.50, -0.03,  0.96, -6.06, 47.17, 21.72, -1.82, 27.45, -6.97,-27.69,-472.58
Uptime 00:00:10, 27.75, -0.35,  0.24,  0.98, -9.58, 47.11, -9.17, 12.71,-19.03,-42.75,111.09,-1256.84; 33.78, -0.15,  0.21,  0.96,  7.05,-44.88,-43.26, 11.87, -8.84, -5.70,-32.68,-478.20
Uptime 00:00:10, 27.71, -0.04,  0.14,  0.95, -9.55,  0.31,  5.79,  8.52, -2.56,-42.96,108.96,-1256.07; 33.78,  0.16,  0.06,  1.07, -8.70, 28.06, 11.31,  3.34,  8.67, -6.64,-28.57,-476.71
Uptime 00:00:11, 27.80,  0.14,  0.08,  1.05, -9.19, -3.98,-10.45,  4.18,  7.54,-43.19,106.13,-1257.43; 33.87, -0.19,  0.03,  0.94,  1.74, 28.87, 24.71,  1.72,-11.33, -6.25,-24.10,-473.49
Uptime 00:00:11, 27.80,  0.07, -0.02,  1.01, -4.28,  1.84,-62.68, -0.86,  4.04,-42.89,104.16,-1265.64; 33.78, -0.07,  0.01,  0.99,  0.12, 16.91, 14.09,  0.33, -3.98, -6.10,-21.36,-471.65
Uptime 00:00:11, 27.80,  0.07,  0.05,  1.02, -1.97,  6.66,-97.05,  2.66,  3.89,-42.25,102.90,-1279.04; 33.96, -0.01,  0.06,  0.96,  5.13, -4.92,-21.06,  3.81, -0.32, -5.21,-21.60,-474.55
Uptime 00:00:11, 27.66,  0.26,  0.12,  1.07, -4.46, 53.59,-108.58,  6.12, 13.33,-41.85,107.40,-1293.15; 33.87, -0.04,  0.14,  0.97, 11.05,-19.65,-36.77,  8.13, -2.34, -3.54,-23.62,-479.33
Uptime 00:00:11, 27.80, -0.11,  0.18,  1.03, 18.56, 62.14,-113.37,  9.68, -5.93,-38.44,113.35,-1308.00; 33.87, -0.08,  0.11,  0.98, 14.43,  4.13,-46.52,  6.14, -4.45, -1.49,-22.53,-485.43
Uptime 00:00:11, 27.85, -0.10,  0.20,  1.11,  4.09, 37.96,-103.31, 10.26, -4.85,-36.93,116.09,-1321.64; 33.87, -0.03,  0.09,  1.01, -0.95,  8.19,-21.82,  4.84, -1.53, -1.49,-20.99,-488.31
Uptime 00:00:11, 27.80, -0.15,  0.12,  0.82,-39.87, 59.15,-55.11,  8.18,-10.07,-41.11,121.51,-1328.80; 33.82, -0.12,  0.17,  0.97, 39.68, 13.35,-50.13,  9.74, -7.07,  3.79,-18.72,-494.83
Uptime 00:00:11, 27.75, -0.61,  0.01,  0.81,-58.69,-57.43,-78.00,  0.38,-36.94,-47.76,112.50,-1338.94; 33.87, -0.17,  0.18,  0.94,  5.16,-23.18,-22.94, 10.79,-10.10,  4.59,-21.10,-497.81
Uptime 00:00:12, 27.71,  0.07, -0.10,  1.00,-10.16,-87.81,-50.58, -5.54,  4.24,-48.24, 98.72,-1345.67; 33.92, -0.09,  0.23,  1.01,-21.18,-34.19, 18.94, 12.73, -4.90,  1.99,-25.04,-495.29
Uptime 00:00:12, 27.75,  0.55, -0.01,  1.03, 12.21, 51.14,-58.12, -0.53, 27.96,-45.73,102.70,-1353.22; 33.92,  0.00,  0.23,  0.87,-21.94, 34.67,  8.12, 14.89,  0.07, -0.54,-20.12,-494.23
Uptime 00:00:12, 27.80, -0.07,  0.07,  1.02, 14.13, 61.62,-84.12,  4.02, -3.63,-42.90,108.69,-1364.33; 33.82, -0.10,  0.11,  1.02, -8.20,  4.76,  4.36,  6.35, -5.38, -1.47,-19.00,-493.66
Uptime 00:00:12, 27.85,  0.03, -0.03,  1.08, 12.78,-11.41,-109.90, -1.82,  1.74,-40.44,105.02,-1378.73; 33.92, -0.02,  0.02,  0.95,-19.48,-16.05, -2.29,  1.29, -1.50, -3.91,-20.65,-493.96
Uptime 00:00:12, 27.71,  0.06,  0.12,  1.01, -0.26, 26.53,-93.20,  6.61,  3.10,-39.54,106.23,-1390.84; 33.92, -0.03,  0.05,  0.99, -2.87, -9.39,-13.50,  2.93, -2.03, -4.14,-21.39,-495.71
Uptime 00:00:12, 27.75,  0.15, -0.08,  1.09,  6.50, 23.90,-107.17, -4.38,  7.62,-37.99,107.05,-1404.99; 33.92,  0.09, -0.05,  1.00,-18.14, -1.85,-17.67, -2.85,  5.41, -6.46,-21.31,-498.04
Uptime 00:00:12, 27.80,  0.16,  0.03,  1.00, 10.10, 37.81,-76.07,  1.67,  8.97,-35.91,109.54,-1414.88; 33.92,  0.06, -0.05,  0.98,  1.22,-16.22,-27.24, -2.79,  3.68, -6.23,-23.02,-501.59
Uptime 00:00:13, 27.80,  0.11,  0.01,  1.02,  4.52, 28.42,-67.05,  0.81,  6.07,-34.60,110.85,-1423.59; 33.92,  0.15, -0.10,  1.04, -2.09,  3.34,-14.46, -5.47,  8.08, -6.48,-22.30,-503.47
Uptime 00:00:13, 27.80, -0.04,  0.07,  1.06, -5.73, 50.37,-69.00,  3.75, -1.91,-34.57,115.19,-1432.70; 34.01,  0.08, -0.04,  1.07,  8.47, 16.58, -9.45, -2.04,  4.50, -5.30,-19.80,-504.71
Uptime 00:00:13, 27.71, -0.05,  0.04,  0.80,-18.87, 27.21,-57.63,  3.18, -3.50,-36.22,116.42,-1440.19; 34.01,  0.02,  0.01,  0.97,  3.45, 25.35, -5.93,  0.57,  0.93, -4.74,-16.19,-505.48
Uptime 00:00:13, 27.80, -0.03, -0.02,  1.16, -5.96,  9.17,-66.99, -0.77, -1.73,-36.27,115.30,-1448.90; 34.01, -0.09,  0.02,  1.01,  4.82,  8.19,-16.49,  0.88, -5.32, -4.02,-14.72,-507.63
Uptime 00:00:13, 27.80, -0.28,  0.05,  1.03, -3.96, 22.71,-56.32,  2.86,-15.36,-36.01,116.26,-1456.39; 34.06, -0.13, -0.02,  0.97,  8.29,-15.88,-41.62, -1.07, -7.93, -2.88,-16.34,-513.16
Uptime 00:00:13, 27.75, -0.11,  0.05,  0.97,  2.96, 17.98,-56.62,  3.02, -6.55,-34.85,116.35,-1463.75; 33.96, -0.05,  0.07,  0.92, -5.89, -0.54,-23.84,  4.46, -3.11, -3.48,-16.01,-516.26
Uptime 00:00:13, 27.75, -0.10,  0.11,  1.00, 11.78,-34.41,-50.62,  6.37, -5.69,-32.50,109.69,-1470.44; 34.01,  0.09,  0.13,  1.01, -5.97, -1.20, -4.87,  7.38,  4.76, -4.03,-15.94,-516.91
Uptime 00:00:13, 27.80,  0.03,  0.14,  1.07, -6.77, 34.56,-46.51,  7.60,  1.80,-32.56,111.86,-1476.48; 34.01, -0.23, -0.00,  0.96, -5.11,  9.17, -8.98, -0.22,-13.16, -4.61,-14.19,-518.07
Uptime 00:00:14, 27.80,  0.04,  0.10,  0.99,  4.53,  8.42,-63.23,  5.64,  2.08,-31.22,110.66,-1484.70; 33.96, -0.06,  0.06,  0.96, -3.16,  9.49, -5.84,  3.58, -3.85, -4.85,-12.62,-518.83
Uptime 00:00:14, 27.85,  0.01,  0.08,  1.04,  3.03, 15.78,-64.99,  4.19,  0.75,-30.12,110.47,-1493.28; 34.06, -0.02, -0.04,  1.00, -6.43, -0.11,-14.80, -2.32, -1.01, -5.63,-12.37,-520.79
Uptime 00:00:14, 27.85,  0.04,  0.18,  0.99,  1.51, 17.35,-65.80, 10.00,  2.22,-29.12,110.43,-1501.83; 34.06,  0.02, -0.09,  1.01,  7.37, -1.21,-16.23, -5.19,  1.25, -4.68,-12.30,-522.90
Uptime 00:00:14, 27.71, -0.08,  0.11,  1.01,  1.20, 15.87,-68.30,  6.32, -4.31,-28.26,110.33,-1510.71; 34.06, -0.09, -0.06,  1.04, -4.60, -4.60, -8.34, -3.47, -5.18, -5.24,-12.53,-523.98
Uptime 00:00:14, 27.89,  0.06,  0.21,  0.99, -2.22, 12.68,-61.95, 11.83,  3.50,-27.75,109.70,-1518.95; 34.06,  0.00, -0.08,  1.03,  6.47, -0.14,-13.30, -4.27,  0.27, -4.38,-12.31,-525.75
Uptime 00:00:14, 27.75, -0.05,  0.13,  0.99, -3.48, 20.63,-67.80,  7.21, -2.90,-27.49,110.19,-1527.77; 34.15, -0.08, -0.10,  1.02, -0.81,  1.41,-10.00, -5.47, -4.63, -4.50,-11.79,-527.05
Uptime 00:00:14, 27.66,  0.04,  0.12,  1.05, -4.00, -1.90,-60.47,  6.56,  1.97,-27.32,107.71,-1535.63; 34.15, -0.03, -0.07,  0.99,  1.34, -2.91,-11.09, -4.25, -1.82, -4.33,-11.89,-528.49
Uptime 00:00:14, 27.85, -0.01,  0.14,  1.00, -1.22, 22.07,-60.94,  8.07, -0.61,-26.77,108.42,-1543.67; 34.06, -0.02, -0.09,  0.99,  0.40,  3.69, -7.15, -5.09, -1.25, -4.29,-11.15,-529.44
Uptime 00:00:15, 27.80,  0.06,  0.19,  1.05, -4.58, 11.00,-69.55, 10.19,  3.48,-26.62,107.58,-1552.71; 34.06, -0.03, -0.03,  0.95, -4.53,  5.71,  0.01, -2.06, -1.58, -4.83,-10.16,-529.43
Uptime 00:00:15, 27.80, -0.00,  0.13,  0.99, -0.93, 22.42,-70.93,  7.73, -0.08,-26.05,108.36,-1562.15; 34.15, -0.04, -0.03,  0.98, -2.23,  0.91,  1.25, -1.89, -2.60, -5.06, -9.79,-529.27
Uptime 00:00:15, 27.89,  0.06,  0.16,  1.05, -5.10, 17.87,-77.89,  8.57,  3.46,-26.02,108.41,-1572.35; 34.11,  0.01, -0.05,  0.95, -2.47, -1.47, -0.58, -3.21,  0.44, -5.34, -9.79,-529.34
Uptime 00:00:15, 27.85, -0.03,  0.15,  1.01, -0.23,  6.56,-76.87,  8.36, -1.66,-25.36,107.11,-1582.34; 34.11, -0.02, -0.03,  0.96, -2.72,  2.32, -3.61, -1.59, -1.04, -5.61, -9.28,-529.81
Uptime 00:00:15, 27.80,  0.17,  0.20,  1.02, -5.41,  1.82,-77.38, 10.79,  9.14,-25.33,105.02,-1592.56; 34.11,  0.02, -0.05,  1.00, -5.66, -4.43, -9.65, -2.91,  1.01, -6.29, -9.69,-531.09
Uptime 00:00:15, 27.89, -0.03,  0.16,  0.99, -1.27,  5.78,-78.94,  9.02, -1.66,-24.81,103.69,-1602.82; 34.15,  0.01, -0.04,  0.96, -4.99, -3.41, -8.36, -2.38,  0.65, -6.85, -9.94,-532.17
Uptime 00:00:15, 27.75,  0.09,  0.33,  1.04, -6.14, -8.63,-93.78, 17.48,  4.96,-24.75,100.42,-1615.01; 34.11,  0.04, -0.01,  1.01, -2.15,-15.06, -1.62, -0.38,  2.50, -6.99,-11.71,-532.38
Uptime 00:00:16, 27.85,  0.40,  0.23,  0.93,-12.19, 27.52,-100.84, 12.76, 22.53,-25.57,101.52,-1628.32; 34.11,  0.16,  0.06,  0.98, 20.64, 30.29,-11.01,  3.22,  9.10, -4.12, -7.74,-533.84
Uptime 00:00:16, 27.85, -0.03,  0.36,  0.92,-15.51, 27.79,-90.77, 21.36, -1.80,-26.61,103.07,-1640.12; 34.11,  0.18,  0.10,  0.93, -0.26, -9.68,-59.26,  6.24, 10.71, -3.94, -9.04,-541.54
Uptime 00:00:16, 27.85,  0.29,  0.35,  1.28, -3.65, 66.75,-73.42, 14.70, 12.41,-26.25,109.33,-1649.74; 34.01, -0.12,  0.15,  1.23,-11.62,-25.32,-57.64,  7.04, -5.76, -5.21,-11.99,-549.09
Uptime 00:00:16, 27.80,  0.00, -0.01,  1.00,-28.26, 17.09,-85.89, -0.38,  0.14,-29.39,109.35,-1661.08; 34.11,  0.05, -0.24,  0.95, 16.49,  8.90,-83.29,-14.29,  2.90, -3.26,-10.66,-560.09
Uptime 00:00:16, 27.85, -0.23,  0.32,  1.01, 18.06, 50.04,-80.47, 16.93,-12.11,-26.16,113.78,-1671.54; 34.11, -0.18,  0.10,  0.95,  4.99, 40.15,-33.78,  6.07,-10.78, -2.44, -5.11,-564.48
Uptime 00:00:16, 27.85, -0.07,  0.16,  0.85, 16.10,-16.94,-110.30, 10.71, -4.81,-23.33,109.39,-1686.21; 34.11,  0.14,  0.28,  0.99, 10.38,-49.23,-65.88, 15.37,  7.66, -0.73,-11.58,-573.24
Uptime 00:00:16, 27.85,  0.03, -0.08,  1.15, 15.52,-22.42,-141.40, -3.94,  1.35,-20.96,104.32,-1704.59; 34.11, -0.07, -0.35,  1.07, -1.86,-17.97,-31.81,-18.31, -3.41, -1.32,-13.57,-577.37
Uptime 00:00:16, 27.85,  0.04,  0.11,  0.95, -6.09,  5.91,-85.89,  6.73,  2.61,-21.18,102.94,-1715.76; 34.20,  0.05, -0.04,  0.94, -1.98,  6.25,-14.66, -2.18,  2.85, -1.59,-12.56,-579.28
Uptime 00:00:17, 27.80,  0.00,  0.33,  0.82,  1.84, 61.43,-58.58, 21.86,  0.18,-20.07,109.24,-1723.90; 34.20,  0.03,  0.15,  0.79, 24.61,  9.31, -6.60, 10.97,  2.25,  2.01,-11.09,-580.20
Uptime 00:00:17, 27.85, -0.11,  0.19,  1.15,  0.78,-17.23,-51.40,  9.21, -5.47,-19.39,104.95,-1730.63; 34.25,  0.18, -0.19,  1.12,-22.11,-57.65,-19.58, -9.32,  8.96, -1.05,-18.44,-582.76
Uptime 00:00:17, 27.80,  0.23,  0.04,  0.90,-19.48, 30.69,-82.88,  2.21, 14.59,-21.44,106.47,-1741.41; 34.15,  0.07, -0.11,  0.92, 21.02,  5.43,-20.83, -6.70,  4.09,  1.52,-17.47,-585.47
Uptime 00:00:17, 27.80,  0.04,  0.23,  1.05, -9.51,-23.84,-75.57, 12.24,  2.13,-22.00,101.22,-1751.38; 34.20, -0.10, -0.02,  1.06,  9.08, -7.99,-39.06, -1.11, -5.53,  2.64,-18.04,-590.62
Uptime 00:00:17, 27.89, -0.21,  0.10,  1.03,  8.79, 71.61,-130.82,  5.44,-11.67,-20.33,108.55,-1768.39; 34.25,  0.18, -0.08,  1.09,-19.63, -2.48,-42.86, -3.93,  9.30,  0.01,-18.18,-596.20
Uptime 00:00:17, 27.85,  0.29,  0.06,  1.19,-30.14,  1.99,-94.39,  2.82, 13.91,-23.79,106.36,-1780.94; 34.25,  0.32, -0.17,  0.91, 13.02,  4.76,-45.35, -9.76, 18.96,  1.51,-17.58,-602.23
Uptime 00:00:17, 27.80,  0.02,  0.22,  0.90,-13.12, 42.59,-70.22, 13.86,  1.31,-24.72,109.67,-1790.14; 34.25, -0.12,  0.02,  0.93, 16.14, -5.04,-43.21,  1.10, -7.52,  3.57,-17.72,-607.89
Uptime 00:00:17, 27.85,  0.02,  0.18,  1.03, 10.10,-50.88,-72.38,  9.89,  1.13,-22.74,100.97,-1799.55; 34.20,  0.35,  0.09,  0.94,-31.82,-37.10,-27.78,  5.07, 20.09, -0.45,-22.50,-611.50
Uptime 00:00:18, 27.89, -0.07,  0.38,  0.97,  8.33, 43.09,-32.82, 21.13, -3.90,-20.78,104.65,-1803.91; 34.25, -0.25,  0.20,  1.12, -7.08, 29.09,  9.40,  9.66,-12.54, -1.17,-18.00,-610.25
Uptime 00:00:18, 27.85,  0.19,  0.27,  0.98,  1.26, 38.88,-43.14, 15.25, 10.61,-19.90,107.30,-1809.52; 34.15,  0.22,  0.00,  0.92, -5.30,  6.96,  4.64,  0.05, 13.46, -1.82,-17.03,-609.65
Uptime 00:00:18, 27.89,  0.00,  0.53,  1.00, -4.06, 52.30,-42.74, 27.69,  0.10,-19.46,111.81,-1815.08; 34.25, -0.05,  0.10,  1.06,  2.63, 14.83,-11.65,  5.18, -2.93, -1.35,-14.74,-611.16
Uptime 00:00:18, 27.85, -0.02,  0.23,  1.06,-25.88,  3.41,-47.28, 12.32, -1.14,-22.20,110.04,-1821.37; 34.15,  0.12,  0.16,  1.09, 17.88, 14.04,-23.23,  8.52,  6.42,  1.18,-12.74,-614.25
Uptime 00:00:18, 27.80, -0.07,  0.42,  0.81, -5.03,  3.69,-58.19, 27.46, -4.13,-21.85,108.39,-1828.93; 34.34, -0.24,  0.30,  0.94, 22.12, 10.48, -9.42, 17.44,-13.56,  4.32,-10.88,-615.47
Uptime 00:00:18, 27.80,  0.21,  0.15,  0.84,-32.34,-30.38,-76.39, 10.08, 13.60,-25.33,102.08,-1838.86; 34.29, -0.09, -0.14,  1.14,  5.74, 32.91, 21.81, -6.95, -4.27,  4.83, -6.38,-612.64
Uptime 00:00:18, 27.80,  0.41,  0.22,  1.30, -2.32, 38.45,-92.76,  9.06, 17.30,-24.95,104.71,-1851.20; 34.20,  0.20,  0.14,  1.17,  1.63,-28.91, 10.06,  6.68,  9.53,  5.08,-10.21,-611.30
Uptime 00:00:19, 27.94, -0.27,  0.21,  0.88, 17.68,110.66,-39.83, 13.18,-16.80,-21.91,117.16,-1856.42; 34.25, -0.56,  0.14,  1.02,-33.39, 45.74,-41.93,  6.72,-28.82,  0.82, -3.56,-616.79
Uptime 00:00:19, 27.89,  0.30,  0.16,  1.05, 10.81,-24.68,-66.19,  8.28, 15.75,-19.91,111.31,-1865.16; 34.29,  0.22, -0.11,  0.91, 15.21,  6.25,-35.79, -6.81, 13.32,  2.64, -2.95,-621.52
Uptime 00:00:19, 27.85, -0.08,  0.43,  1.01,-31.13, 36.92,-95.03, 23.18, -3.92,-23.02,113.86,-1877.51; 34.29, -0.32,  0.17,  1.01, -6.00, 50.27,-23.52,  9.15,-17.57,  2.00,  3.87,-624.58
Uptime 00:00:19, 27.80,  0.02, -0.16,  1.02, 28.94,-50.91,-113.42, -9.10,  1.36,-19.05,105.07,-1892.25; 34.29,  0.46, -0.51,  0.96,-37.02,-18.13, -5.90,-25.77, 22.67, -3.27,  1.03,-625.34
Uptime 00:00:19, 27.85,  0.36,  0.22,  1.25, 10.64,  7.35,-106.38,  9.82, 15.86,-17.09,103.61,-1906.40; 34.20,  0.02,  0.10,  1.12,  6.18,  5.16, 34.33,  5.36,  1.25, -2.29,  1.65,-620.78
Uptime 00:00:19, 27.80, -0.12,  0.37,  0.74, -9.61, 40.98,-12.80, 26.48, -8.41,-17.44,106.93,-1908.07; 34.20,  0.31,  0.20,  1.03,  0.23, 33.34, -4.10, 10.55, 16.64, -2.00,  5.54,-621.31
Uptime 00:00:19, 27.85, -0.12,  0.23,  0.88, -4.92, 24.46,-11.20, 14.68, -7.82,-17.42,108.06,-1909.52; 34.20, -0.06, -0.15,  0.92,-22.44,-19.32,-25.20, -9.45, -3.80, -5.01,  3.04,-624.58
Uptime 00:00:19, 27.89, -0.19,  0.31,  1.13, -1.85, 30.51,-42.79, 15.08, -9.00,-17.01,110.03,-1915.17; 34.29, -0.03,  0.18,  1.06, 13.97,  3.89,-23.35,  9.78, -1.82, -2.91,  3.52,-627.67
Uptime 00:00:20, 27.85, -0.26,  0.28,  0.81,-26.89, -8.94,-52.80, 18.46,-16.94,-19.76,107.02,-1922.09; 34.20, -0.26,  0.07,  0.54, 19.10,  7.98, 26.41,  6.65,-25.20, -0.27,  4.98,-624.21
Uptime 00:00:20, 27.89,  0.03, -0.07,  1.06, 24.00,-27.40,-59.22, -3.93,  1.57,-16.38,101.36,-1929.79; 34.29,  0.09, -0.41,  0.92, -2.52, 53.66, 78.93,-23.83,  4.83, -1.06, 11.62,-613.95
Uptime 00:00:20, 27.85,  0.19,  0.46,  1.26,-15.47, 58.01,-59.66, 19.77,  7.96,-17.67,106.73,-1937.72; 34.20, -0.02,  0.13,  1.33, 23.07,  3.19, 52.42,  5.66, -0.67,  2.08, 11.81,-606.97
Uptime 00:00:20, 27.89,  0.09,  0.05,  0.83,-22.90, 23.06, 39.42,  3.10,  6.44,-20.20,107.43,-1932.56; 34.20, -0.14,  0.09,  0.83, -3.04, 34.54, 42.35,  6.36, -9.38,  1.78, 16.20,-601.43
Uptime 00:00:20, 27.94, -0.17,  0.03,  1.13, 15.37, 42.71, 15.09,  1.47, -8.63,-17.78,110.98,-1930.57; 34.29, -0.25, -0.35,  1.04,-13.65,-26.25,-13.64,-18.18,-12.65, -0.39, 12.73,-603.23
Uptime 00:00:20, 27.89,  0.03,  0.22,  1.05,-11.59,-16.63,-31.93, 11.74,  1.45,-18.66,106.61,-1934.72; 34.25,  0.15,  0.19,  1.03, 27.24,  5.38,-12.84, 10.37,  8.39,  3.30, 13.00,-604.90
Uptime 00:00:20, 27.85, -0.34, -0.02,  0.91,-23.55, 60.34,-50.03, -1.13,-20.28,-21.31,112.57,-1941.22; 34.29, -0.13, -0.22,  0.67,  6.17, 25.25, 18.67,-17.83,-10.06,  3.66, 16.15,-602.47
Uptime 00:00:21, 27.80,  0.08,  0.12,  0.88, 23.77,-51.84,-64.22,  8.07,  5.15,-17.63,103.46,-1949.76; 34.29, -0.02, -0.24,  0.88,-17.10, 37.38, 32.09,-15.19, -1.27,  1.06, 20.73,-598.20
Uptime 00:00:21, 27.94,  0.10,  0.22,  1.19, -7.47, 61.95,-76.18, 10.61,  4.74,-18.01,109.19,-1959.67; 34.25, -0.07,  0.01,  1.13, 14.41, 11.08, 62.85,  0.46, -3.64,  2.88, 21.80,-590.03
Uptime 00:00:21, 27.80,  0.29,  0.20,  1.09, -2.98, -4.30,  6.11, 10.24, 14.93,-17.83,106.16,-1958.87; 34.29,  0.25, -0.27,  0.76, -1.63,-43.85, 35.14,-18.98, 17.08,  2.23, 15.43,-585.46
Uptime 00:00:21, 27.94,  0.24,  0.01,  0.98, 50.97, 89.90,  1.99,  0.70, 13.73,-10.81,115.48,-1958.61; 34.25, -0.43, -0.38,  1.05,-51.04,  4.15,-46.08,-18.54,-21.12, -4.83, 16.09,-591.59
Uptime 00:00:21, 27.80, -0.22,  0.26,  0.99,-23.71,-15.83,-31.86, 14.33,-12.26,-13.33,111.40,-1962.75; 34.25, -0.02, -0.01,  1.11, 28.82,  2.22,-10.14, -0.72, -1.09, -1.08, 16.07,-592.91
Uptime 00:00:21, 27.85, -0.18,  0.05,  1.07,-16.48, 37.67,-57.77,  2.87, -9.44,-15.11,114.16,-1970.26; 34.25, -0.12, -0.31,  0.97,  1.28, 44.87,  6.90,-17.56, -6.88, -1.24, 21.60,-592.01
Uptime 00:00:21, 27.89,  0.04, -0.14,  0.80, 37.54,-66.96,-81.38,-10.08,  2.64,-10.11,103.09,-1981.08; 34.34,  0.12, -0.03,  0.94,-65.19, -6.80, 44.77, -1.99,  7.50, -9.76, 20.14,-586.06
Uptime 00:00:21, 27.85,  0.13,  0.21,  1.03, -0.97, 89.98,-80.00, 11.42,  7.04, -9.81,112.44,-1991.56; 34.34, -0.26,  0.07,  1.18, 14.12, -8.00, 44.73,  3.48,-12.50, -7.68, 18.95,-580.20
Uptime 00:00:22, 27.89,  0.13,  0.29,  1.00, -7.96, 20.24,-37.26, 16.37,  6.89,-10.31,112.67,-1996.48; 34.25,  0.09, -0.18,  1.02, -7.11,-31.32, 22.53, -9.81,  5.22, -8.64, 14.42,-577.22
Uptime 00:00:22, 27.85,  0.29, -0.02,  0.84, 25.49, 90.25,-16.30, -1.55, 19.08, -6.89,121.53,-1998.60; 34.34, -0.44, -0.13,  1.12,-44.52, 46.71,-16.63, -6.12,-21.53,-14.26, 20.51,-579.39
Uptime 00:00:22, 27.99, -0.44,  0.28,  0.97,-18.72,-60.05,-29.78, 14.92,-23.45, -8.86,111.86,-2002.50; 34.34, -0.24, -0.15,  1.07, 14.58,-13.46,-38.63, -7.53,-12.54,-12.26, 18.63,-584.45
Uptime 00:00:22, 27.94, -0.09,  0.20,  1.03, 15.11,-13.80,-74.09, 11.07, -4.98, -6.50,107.94,-2012.28; 34.34, -0.12, -0.12,  1.09, 26.72,  3.92,-19.41, -6.20, -6.03, -8.68, 18.88,-587.01
Uptime 00:00:22, 27.89,  0.08,  0.24,  0.91, 21.10,-16.09,-129.61, 14.43,  4.89, -3.40,103.64,-2029.13; 34.34,  0.62, -0.01,  1.12,-26.12,  3.90, 16.38, -0.29, 29.00,-11.84, 18.42,-584.88
Uptime 00:00:22, 27.94,  0.16,  0.12,  1.11, -8.43, 19.99,-75.74,  5.88,  8.01, -4.29,103.95,-2038.98; 34.34, -0.02, -0.19,  1.08, 10.43,-22.88, 25.80, -9.95, -1.26,-10.47, 15.16,-581.53
Uptime 00:00:22, 27.89,  0.32,  0.24,  0.98, -3.29,  8.53,-47.90, 13.38, 17.65, -4.38,102.68,-2045.63; 34.39,  0.16, -0.15,  1.00, 11.92, -3.91, 33.55, -8.31,  9.03, -8.81, 14.15,-576.86
Uptime 00:00:22, 27.85,  0.29,  0.13,  0.89, 17.20, 77.15,-49.42,  7.69, 18.08, -1.95,110.09,-2052.06; 34.29,  0.19, -0.00,  0.98,-19.34, 66.15, 15.32, -0.06, 10.75,-11.10, 22.08,-574.87
Uptime 00:00:23, 27.99,  0.16,  0.24,  0.94, -5.94,-28.25,-43.09, 14.38,  9.14, -2.38,104.11,-2057.66; 34.39,  0.35, -0.10,  1.11,-14.14,-46.83,-41.47, -4.77, 17.39,-12.77, 15.32,-580.26
Uptime 00:00:23, 27.94,  0.16,  0.31,  1.00,-40.17, 39.15,-71.08, 17.12,  8.68, -7.26,106.99,-2067.19; 34.25,  0.01,  0.08,  0.89,  0.43, 16.38,-50.69,  5.43,  0.57,-12.35, 17.14,-587.00
Uptime 00:00:23, 27.99,  0.07,  0.25,  1.02,  7.78, 11.72,-88.50, 13.88,  3.79, -5.86,106.26,-2078.60; 34.39, -0.03,  0.04,  1.02, 16.81,  6.59,-44.68,  1.98, -1.94, -9.92, 17.67,-592.81
Uptime 00:00:23, 27.85, -0.01,  0.40,  1.09,  4.10,  3.72,-125.74, 19.98, -0.53, -4.81,104.63,-2095.20; 34.39,  0.34,  0.17,  1.09,-36.37, 18.53,  4.22,  8.35, 17.35,-14.26, 19.37,-592.25
Uptime 00:00:23, 27.89, -0.03,  0.29,  0.96,-32.16, 85.43,-68.48, 16.97, -1.56, -8.50,113.53,-2104.17; 34.48, -0.06,  0.14,  1.00, 27.89, -0.66,  8.10,  8.05, -3.29,-10.23, 18.96,-591.19
Uptime 00:00:23, 27.94,  0.32,  0.24,  0.89,-14.26,-30.48,-60.44, 14.51, 18.97, -9.86,107.00,-2112.03; 34.48,  0.27, -0.05,  0.94,-17.13,-29.04,  8.00, -3.11, 16.27,-12.27, 14.56,-590.15
Uptime 00:00:23, 27.89,  0.02,  0.17,  1.03, 32.47,115.03,-28.80,  9.19,  1.02, -5.28,119.72,-2115.83; 34.29, -0.27,  0.11,  1.12,-42.27, 34.56,-36.20,  5.45,-13.41,-17.39, 19.01,-594.93
Uptime 00:00:24, 27.85,  0.07,  0.40,  1.01,-40.77,-32.76,-46.56, 21.46,  3.52, -9.94,113.08,-2121.88; 34.48,  0.10,  0.03,  0.97, 14.27, -2.91,-58.75,  1.91,  5.66,-15.18, 18.14,-602.57
Uptime 00:00:24, 27.99,  0.16,  0.24,  1.08, 24.76, 48.83,-103.57, 12.27,  8.20, -6.34,116.88,-2135.35; 34.48, -0.13, -0.15,  1.03, 10.35, 70.16, -7.64, -8.01, -6.95,-13.72, 26.86,-603.56
Uptime 00:00:24, 27.94,  0.15,  0.20,  1.12,  3.08, 14.72,-114.44,  9.93,  7.37, -5.61,116.30,-2150.45; 34.48,  0.31, -0.01,  1.04, -2.12, 63.81, 35.60, -0.69, 16.68,-13.74, 34.24,-598.86
Uptime 00:00:24, 27.99, -0.07,  0.48,  0.89,-23.80,-19.38,-35.61, 28.09, -3.83, -7.97,111.58,-2155.08; 34.44, -0.23,  0.13,  1.02,  6.37,-64.34, 16.42,  7.06,-12.33,-12.51, 25.61,-596.73
Uptime 00:00:24, 27.94,  0.17,  0.10,  0.91,  9.74,  3.53,-19.77,  6.28, 10.56, -6.42,109.59,-2157.71; 34.39,  0.30, -0.04,  0.79,  3.45,-23.59,-31.76, -2.41, 20.86,-11.86, 21.60,-600.95
Uptime 00:00:24, 27.99, -0.24,  0.30,  1.11,-24.09,-24.38, -9.66, 14.62,-11.77, -9.09,104.51,-2158.98; 34.44,  0.09,  0.07,  0.90, 20.11,-40.63,-42.52,  4.18,  5.98, -8.95, 15.83,-606.52
Uptime 00:00:24, 27.94, -0.25,  0.08,  0.99,  1.77,  6.40,-69.60,  4.32,-14.12, -8.60,103.52,-2168.02; 34.44, -0.07, -0.18,  0.88, 14.26, 51.81,-24.42,-11.83, -4.50, -7.20, 22.21,-609.70
Uptime 00:00:24, 27.99,  0.15,  0.10,  1.28, 28.87, 60.88,-137.84,  4.43,  6.75, -4.60,109.19,-2186.22; 34.53,  0.04, -0.16,  1.12,-11.86, -4.66, 10.24, -8.38,  1.84, -8.75, 21.12,-608.35
Uptime 00:00:25, 27.94, -0.20,  0.62,  0.72,-35.68, 10.19,-28.29, 39.56,-11.81, -8.30,108.55,-2189.93; 34.39, -0.14,  0.13,  1.08, 14.61,-31.70, 34.87,  6.61, -7.14, -6.57, 16.77,-603.78
Uptime 00:00:25, 27.99,  0.14, -0.22,  0.85, 27.48, 91.30,-49.09,-14.25,  9.10, -4.89,117.92,-2196.36; 34.44,  0.19, -0.14,  1.26,-19.86, -1.93,  7.89, -6.30,  8.60, -9.12, 16.02,-602.74
Uptime 00:00:25, 27.94, -0.29,  0.30,  1.09,-27.41,-55.38,-21.57, 14.93,-14.29, -8.04,108.68,-2199.20; 34.44, -0.06,  0.06,  1.01, 37.21,-35.27,-45.90,  3.18, -3.61, -4.06, 11.21,-608.80
Uptime 00:00:25, 27.99,  0.04,  0.02,  1.12,  2.97,-16.91,-79.51,  1.21,  2.23, -7.48,104.31,-2209.54; 34.44, -0.12, -0.13,  0.73,  4.84, 68.48,-15.52,-10.15, -8.94, -3.56, 19.89,-610.82
Uptime 00:00:25, 28.04,  0.39,  0.08,  1.20,  6.42, 27.56,-125.78,  3.50, 18.09, -6.44,105.37,-2225.89; 34.44,  0.55, -0.05,  1.22, -2.32, 10.71, 40.10, -1.94, 24.09, -3.83, 20.37,-605.61
Uptime 00:00:25, 27.99,  0.21,  0.19,  0.71, -7.53,-18.79,-43.25, 14.07, 16.11, -7.00,100.51,-2231.60; 34.53,  0.04, -0.12,  0.94,  5.10, -2.84, 49.37, -7.55,  2.51, -3.24, 19.55,-599.09
Uptime 00:00:25, 27.85,  0.29,  0.06,  0.83, 37.55, 87.43,-33.05,  4.19, 19.42, -1.99,109.25,-2235.90; 34.44,  0.16, -0.00,  1.11,-28.76, 54.99, -0.89, -0.12,  7.98, -6.84, 26.00,-599.21
Uptime 00:00:25, 27.99,  0.13,  0.21,  1.02,-58.95, 10.39,-56.26, 11.75,  6.95, -9.34,108.27,-2243.32; 34.39,  0.06, -0.11,  0.92, -3.27,-21.62,-42.14, -7.00,  3.77, -7.27, 22.61,-604.77
Uptime 00:00:26, 27.94, -0.12,  0.08,  0.94, 12.88, 31.12,-94.29,  4.91, -7.45, -7.41,110.25,-2255.67; 34.53,  0.08, -0.12,  0.98, 22.78, 48.58,-44.57, -6.70,  4.49, -4.33, 28.30,-610.61
Uptime 00:00:26, 27.94, -0.35,  0.07,  1.06,  6.24,  4.53,-82.94,  3.82,-18.53, -6.39,108.99,-2266.46; 34.48, -0.35,  0.16,  1.16,  7.14,-47.00,-29.79,  7.42,-16.78, -3.19, 22.09,-614.48
Uptime 00:00:26, 27.94, -0.10,  0.33,  0.93,-26.61,-23.28,-63.16, 19.54, -5.58, -9.31,103.91,-2274.79; 34.53,  0.08,  0.19,  0.98,-27.21,  1.75, 29.49, 11.16,  4.45, -6.42, 21.78,-610.59
Uptime 00:00:26, 27.99,  0.25,  0.06,  0.96, -7.06, 23.52,-41.05,  3.30, 14.32, -9.96,104.57,-2280.17; 34.53,  0.09, -0.10,  0.90, -3.56, 24.27, 53.92, -6.45,  5.64, -6.88, 24.35,-603.52
Uptime 00:00:26, 27.94,  0.13,  0.53,  1.06, 10.87,-33.73,-33.17, 26.49,  6.24, -7.85, 98.05,-2284.48; 34.48,  0.28,  0.16,  1.06,  4.21,-28.62,  3.20,  8.42, 14.79, -6.03, 19.92,-603.11
Uptime 00:00:26, 27.99,  0.05,  0.24,  0.89,  5.94, 61.27,-18.51, 14.71,  3.39, -6.63,103.95,-2286.93; 34.48, -0.05,  0.10,  1.07,-43.97, -9.49,-70.16,  5.53, -2.86,-11.49, 18.35,-612.37
Uptime 00:00:26, 28.04, -0.10,  0.11,  0.79,-18.72,-14.01,-75.95,  7.85, -7.27, -8.73,100.23,-2296.80; 34.53, -0.06, -0.25,  0.87, 29.02,-12.39,-42.07,-16.21, -3.50, -7.89, 16.48,-617.84
Uptime 00:00:27, 27.99,  0.29,  0.30,  1.20, -7.03, 39.26,-137.66, 13.51, 13.05, -9.18,103.01,-2314.83; 34.48, -0.12,  0.08,  0.85, 13.45, 30.70,-15.76,  5.10, -7.86, -5.90, 20.25,-619.90
Uptime 00:00:27, 27.94,  0.22,  0.16,  0.97,-32.16, 61.03,-134.45,  9.17, 12.70,-12.98,108.59,-2332.58; 34.58, -0.06,  0.10,  0.97, 15.08, 32.06,-10.08,  5.80, -3.60, -3.72, 24.06,-621.23
Uptime 00:00:27, 27.99,  0.28, -0.04,  0.85, 16.30, 47.78,-103.02, -2.62, 18.32,-10.69,112.13,-2345.97; 34.48,  0.18, -0.17,  1.00, -7.18,-12.89,-29.13, -9.35, 10.09, -4.74, 21.73,-625.02
Uptime 00:00:27, 27.94, -0.13,  0.38,  1.03,  8.71, 66.11,-39.95, 20.34, -6.90, -8.94,118.65,-2351.29; 34.48, -0.33,  0.11,  1.40,-32.47,  4.47,-73.90,  4.21,-13.20, -8.80, 22.15,-634.85
Uptime 00:00:27, 27.99, -0.16, -0.15,  1.13,-16.77,-13.84,-129.74, -7.66, -8.13,-11.05,114.67,-2368.15; 34.58, -0.03, -0.37,  0.89, 10.40,-18.14,-100.81,-22.52, -1.58, -7.75, 19.42,-647.95
Uptime 00:00:27, 27.94, -0.14,  0.26,  0.92,  6.06,  8.83,-105.29, 15.86, -8.40, -9.74,113.67,-2381.84; 34.58, -0.22,  0.05,  1.05,-15.25, 39.16,-35.36,  2.92,-11.61, -9.48, 24.26,-652.55
Uptime 00:00:27, 28.08,  0.01,  0.00,  0.95,-14.23,-32.48,-148.19,  0.19,  0.79,-11.39,107.15,-2401.55; 34.58,  0.21, -0.13,  1.20,-42.98, 65.12, 40.29, -6.12,  9.85,-15.01, 32.06,-647.19
Uptime 00:00:27, 28.04,  0.02, -0.13,  1.01,-45.80, 13.23,-54.42, -7.43,  0.87,-17.15,106.67,-2408.62; 34.58, -0.04, -0.26,  1.03, -2.99,-48.54, -4.81,-14.31, -2.25,-15.38, 25.28,-647.82
Uptime 00:00:28, 27.99,  0.50, -0.06,  0.98,  7.03, 57.98,-34.53, -2.99, 27.12,-15.97,111.38,-2413.11; 34.67,  0.10, -0.49,  0.72, 25.47,-34.39,-20.34,-33.93,  6.77,-12.50, 20.26,-650.46
Uptime 00:00:28, 27.94, -0.14, -0.08,  1.07, -9.80, 48.25, -4.30, -4.28, -7.68,-17.01,115.60,-2413.69; 34.58, -0.27, -0.11,  1.30,-16.05,-75.82,-73.44, -4.81,-11.59,-14.44, 10.20,-660.23
Uptime 00:00:28, 27.99, -0.31, -0.08,  0.96,-46.60, -4.60,-20.82, -4.29,-17.77,-22.70,113.06,-2416.39; 34.48,  0.12, -0.18,  0.91, 29.76, -7.70,-11.79,-11.10,  7.68,-10.58,  8.87,-661.76
Uptime 00:00:28, 27.94, -0.05, -0.11,  0.87,-22.26,-36.41,-49.64, -7.43, -3.34,-25.23,106.22,-2422.85; 34.48,  0.01, -0.05,  0.91, 11.33,  7.75, 22.36, -3.16,  0.63, -8.99,  9.66,-658.85
Uptime 00:00:28, 27.99,  0.29, -0.37,  1.15,-21.33,-30.33,-96.51,-17.10, 13.53,-27.95, 99.73,-2436.17; 34.58,  0.45, -0.01,  1.24,  9.16, 28.79, 32.24, -0.64, 19.93, -7.59, 12.96,-654.41
Uptime 00:00:28, 28.04,  0.21, -0.15,  0.79, -1.47,-22.39,-109.42,-10.22, 14.51,-27.78, 94.59,-2450.39; 34.58,  0.08, -0.07,  0.93,  2.21,  2.48, -3.00, -4.36,  5.07, -7.24, 12.92,-654.80
Uptime 00:00:28, 27.89,  0.13, -0.13,  0.85, 14.73, 92.72,-39.89, -8.83,  8.34,-25.48,104.62,-2455.69; 34.62,  0.22,  0.03,  1.01, 20.38, 37.52,-14.46,  1.56, 12.38, -4.41, 17.31,-656.72
Uptime 00:00:29, 28.04,  0.42, -0.27,  1.13, 12.15,-40.45,-52.58,-12.54, 19.87,-23.68, 96.97,-2462.53; 34.53,  0.09, -0.10,  0.85, -4.02, 11.83, 16.71, -6.99,  6.19, -4.97, 18.34,-654.55
Uptime 00:00:29, 27.99,  0.20, -0.32,  0.94,  1.86, 12.82,-69.57,-18.53, 11.29,-23.34, 96.44,-2471.57; 34.58,  0.10, -0.11,  0.97,  0.09, 11.54,  0.32, -6.26,  5.82, -4.98, 19.33,-654.50
Uptime 00:00:29, 28.04,  0.09, -0.12,  0.95,  6.16, 27.98,-53.80, -7.00,  5.09,-22.21, 98.06,-2478.73; 34.62, -0.01, -0.03,  0.98, -2.57,  2.00,-10.54, -1.99, -0.30, -5.26, 19.21,-655.91
Uptime 00:00:29, 27.99,  0.24, -0.11,  1.04, -4.77, 12.01,-50.85, -6.05, 12.73,-22.50, 97.38,-2485.39; 34.62,  0.07,  0.06,  0.96, -6.11,  7.12, -6.49,  3.78,  4.08, -5.86, 19.66,-656.76
Uptime 00:00:29, 28.04,  0.16, -0.19,  0.94, -7.32, 20.16,-72.47,-11.24,  9.41,-23.20, 97.81,-2494.81; 34.53,  0.02,  0.02,  1.01,  3.05,  3.84, -3.42,  1.34,  0.98, -5.33, 19.73,-657.20
Uptime 00:00:29, 27.99,  0.15,  0.02,  1.00, 14.33, 21.40,-72.91,  1.08,  8.68,-20.86, 98.45,-2504.43; 34.58,  0.02,  0.04,  0.96,-10.66,  0.82, -8.02,  2.33,  1.08, -6.55, 19.42,-658.26
Uptime 00:00:29, 28.08,  0.30, -0.00,  1.10,-12.54,  8.95,-78.51, -0.07, 15.01,-22.04, 97.32,-2514.64; 34.58,  0.05,  0.04,  0.98,-15.83, 15.08, -4.10,  2.56,  2.99, -8.39, 20.90,-658.79
Uptime 00:00:29, 28.08,  0.04, -0.10,  0.97,  0.55, 22.78,-77.28, -5.66,  2.16,-21.65, 98.28,-2524.84; 34.53,  0.02, -0.05,  0.99, -2.03,  2.88,-12.66, -2.97,  1.23, -8.54, 20.83,-660.46
Uptime 00:00:30, 28.04,  0.13, -0.11,  0.96, 12.32, -1.60,-60.79, -6.65,  7.63,-19.78, 95.96,-2532.74; 34.62,  0.07, -0.13,  1.01, -1.27, -4.31,-15.64, -7.50,  4.13, -8.68, 19.78,-662.50
Uptime 00:00:30, 28.08,  0.17, -0.07,  1.04,  2.45, 18.80,-58.62, -3.59,  9.28,-19.14, 96.29,-2540.48; 34.53, -0.04, -0.02,  0.97, -9.62,  6.97, -9.62, -0.96, -2.18, -9.77, 20.33,-663.77
Uptime 00:00:30, 27.94,  0.20, -0.06,  0.99, -1.77, 10.95,-63.32, -3.14, 11.35,-19.05, 95.56,-2548.91; 34.72, -0.01, -0.05,  1.00,  1.57,  5.86,  5.52, -2.90, -0.65, -9.43, 20.70,-663.03
Uptime 00:00:30, 27.94,  0.19, -0.13,  0.97,-11.70, 20.17,-65.05, -7.25, 10.76,-20.30, 96.01,-2557.36; 34.58,  0.05, -0.12,  0.99,  5.57, -0.14, -1.16, -6.87,  2.68, -8.67, 20.21,-663.18
Uptime 00:00:30, 28.04,  0.23, -0.04,  0.89,-19.04, 22.63,-64.96, -2.29, 14.36,-22.37, 96.68,-2565.81; 34.53,  0.04, -0.01,  1.00,  1.47,  5.51, -4.66, -0.80,  2.29, -8.33, 20.46,-663.79
Uptime 00:00:30, 27.99,  0.18,  0.02,  0.94, -2.32, 12.16,-70.74,  0.99, 10.69,-22.20, 96.12,-2575.21; 34.67,  0.07,  0.02,  1.00, -2.61, -0.05, -6.26,  0.86,  3.99, -8.48, 19.97,-664.62
Uptime 00:00:30, 27.94,  0.20, -0.08,  0.98, -0.06, 15.37,-79.17, -4.60, 11.29,-21.86, 95.93,-2585.51; 34.67,  0.09, -0.06,  1.02,  0.31,  1.06, -8.02, -3.28,  4.93, -8.34, 19.61,-665.67
Uptime 00:00:30, 28.08,  0.15, -0.08,  0.96,-18.71, 16.40,-77.87, -4.97,  8.59,-23.90, 95.93,-2595.63; 34.76,  0.02, -0.01,  1.00, -7.48,  6.39, -8.95, -0.73,  0.95, -9.14, 20.01,-666.83
Uptime 00:00:31, 28.04,  0.13, -0.21,  0.95,-20.34, 32.45,-75.45,-12.23,  7.78,-26.32, 98.08,-2605.67; 34.72,  0.03, -0.07,  1.08, 13.50,  5.45,-20.07, -3.64,  1.77, -7.27, 20.28,-669.50
Uptime 00:00:31, 27.99,  0.15, -0.19,  0.92,-13.96, -1.25,-75.38,-11.82,  9.27,-27.81, 95.78,-2615.47; 34.67,  0.04, -0.05,  0.99,  5.39,-10.00,-13.24, -3.16,  2.29, -6.50, 18.56,-671.22
Uptime 00:00:31, 27.94,  0.19, -0.16,  0.84,-27.01, -8.30,-72.80,-10.44, 12.33,-30.96, 92.54,-2625.08; 34.67,  0.07,  0.00,  0.96, -1.73,-13.70,-12.14,  0.10,  3.91, -6.59, 16.34,-672.82
Uptime 00:00:31, 27.99,  0.34, -0.18,  0.85,-14.17,-27.28,-71.89,-11.03, 21.35,-32.38, 86.76,-2634.49; 34.76,  0.25, -0.03,  1.02,  5.16, -8.37,-13.20, -1.45, 13.73, -5.83, 14.66,-674.55
Uptime 00:00:31, 28.04,  0.27, -0.27,  0.89,  0.38, 26.72,-64.67,-15.98, 15.98,-32.00, 88.14,-2642.96; 34.76,  0.05,  0.06,  0.91, -2.67,  2.76,  0.21,  3.72,  3.09, -5.98, 14.66,-674.52
Uptime 00:00:31, 27.99,  0.15, -0.29,  0.92, 23.58, 19.37,-17.16,-17.05,  8.58,-28.65, 88.71,-2645.23; 34.67,  0.02,  0.18,  1.07,-20.89, 58.22,  5.81,  9.45,  0.83, -8.37, 21.88,-673.76
Uptime 00:00:31, 28.04,  0.29, -0.32,  0.94,  5.84,-12.63, 14.31,-18.08, 16.07,-27.69, 85.00,-2643.37; 34.67,  0.20, -0.18,  0.93, 28.81, -9.96,  8.87,-10.40, 11.73, -4.74, 19.94,-672.60
Uptime 00:00:32, 27.99,  0.40, -0.11,  0.46,-67.53,  1.09,-34.48,-10.67, 40.49,-36.02, 82.63,-2647.89; 34.67,  0.26,  0.05,  1.10, 37.60, -8.75, 11.75,  2.70, 13.41,  0.23, 18.15,-671.06
Uptime 00:00:32, 28.04,  0.84,  1.40,  2.03,496.88,152.48,-65.06, 32.48, 18.87, 30.11,100.48,-2656.54; 34.58, -0.42, -0.14,  0.82,  5.30, 49.25, 11.17, -8.70,-27.09,  0.74, 24.75,-669.58
Uptime 00:00:32, 28.08, -0.05,  0.12,  0.88, 34.18, 32.98,-111.34,  7.54, -3.37, 34.01,102.74,-2671.01; 34.76, -0.15,  0.26,  0.92,-32.11, 28.74,-11.84, 15.38, -8.70, -3.05, 28.09,-671.12
Uptime 00:00:32, 28.04,  0.42,  0.02,  1.12, 40.16, 13.56,-65.71,  0.73, 20.70, 38.46,102.00,-2679.56; 34.67,  0.24,  0.02,  1.11,-13.89, -7.07, -6.69,  0.89, 12.15, -4.75, 26.38,-671.99
Uptime 00:00:32, 28.04,  0.04,  0.37,  1.20,-17.88,-17.47,-10.33, 17.02,  1.90, 35.71, 97.64,-2680.93; 34.67,  0.01,  0.20,  1.18, 25.62,  4.79, 58.58,  9.66,  0.35, -1.12, 26.47,-664.20
Uptime 00:00:32, 28.04,  0.49,  0.04,  0.72, 16.47, 62.91, -2.51,  2.64, 34.21, 37.14,103.02,-2681.26; 34.67,  0.50, -0.16,  0.74, -7.80, 66.97,  7.29, -9.93, 33.26, -2.29, 33.81,-663.25
Uptime 00:00:32, 28.08, -0.57,  0.33,  1.34, -4.31,  3.40, 23.03, 12.75,-22.35, 36.10,101.85,-2678.22; 34.72, -0.09,  0.08,  1.11, 20.29,-59.50,-28.86,  4.02, -4.80,  0.46, 25.53,-667.06
Uptime 00:00:32, 28.04,  0.56,  0.33,  1.13,-40.90, 10.78,-92.82, 14.69, 25.47, 30.46,100.67,-2690.28; 34.76, -0.04,  0.06,  0.96, -1.74, 21.93,-22.14,  3.75, -2.44,  0.31, 27.86,-669.94
Uptime 00:00:33, 27.99,  0.14, -0.20,  0.80, 14.88,-36.39,-112.45,-13.78,  9.85, 31.48, 93.79,-2705.01; 34.62, -0.36,  0.03,  0.92, -7.94, 25.14, -5.50,  1.46,-21.22, -0.69, 30.96,-670.66
Uptime 00:00:33, 28.04,  0.18,  0.16,  1.10,-13.09, 76.98,-85.26,  8.35,  8.92, 29.33,101.69,-2716.27; 34.76, -0.09,  0.14,  1.08, 17.18, 24.29, 31.69,  7.17, -4.54,  1.69, 33.57,-666.47
Uptime 00:00:33, 27.99,  0.36,  0.31,  0.87,-46.31,  6.56, -5.93, 18.30, 21.18, 23.21,100.07,-2717.04; 34.72,  0.17, -0.16,  0.87,  5.89,-28.23, 24.62,-10.40, 11.02,  2.20, 29.08,-663.27
Uptime 00:00:33, 28.04,  0.13, -0.31,  1.04, 40.71, 39.56,  2.39,-16.22,  6.78, 27.61,102.98,-2716.73; 34.72, -0.25,  0.26,  1.39,-43.01, -6.84, -5.68, 10.62,-10.11, -3.11, 27.83,-664.01
Uptime 00:00:33, 28.08,  0.13,  0.53,  1.22,-27.74,  9.67,-115.20, 23.38,  5.76, 23.88,102.07,-2732.17; 34.72,  0.09,  0.04,  1.07,  4.89, 17.92,-36.49,  2.07,  4.72, -2.37, 29.53,-668.90
Uptime 00:00:33, 28.13, -0.11, -0.09,  0.96, -1.24,-36.36,-74.84, -5.43, -6.49, 23.13, 95.53,-2741.90; 34.72, -0.26, -0.12,  0.69, 35.65, 26.91, 16.68, -8.89,-20.31,  2.04, 32.78,-666.73
Uptime 00:00:33, 28.08,  0.22, -0.01,  1.07,  4.06, 18.43,-95.49, -0.49, 11.82, 23.18, 95.73,-2754.31; 34.81,  0.09,  0.07,  1.18,-17.65, 62.22, 94.48,  3.28,  4.39, -0.18, 39.96,-654.45
Uptime 00:00:33, 28.13,  0.64, -0.07,  0.97,-19.04, 25.23,-42.15, -3.64, 33.47, 20.16, 96.43,-2759.92; 34.67,  0.07, -0.41,  0.96,  4.03,-16.54, 36.67,-23.20,  3.99, -0.11, 36.93,-649.57
Uptime 00:00:34, 28.08, -0.01, -0.13,  0.90,  6.18, 50.56,-36.59, -8.13, -0.81, 20.38,100.96,-2764.67; 34.72,  0.31, -0.06,  0.80, 20.46,-13.13, -8.39, -3.66, 21.21,  2.42, 34.09,-650.66
Uptime 00:00:34, 28.22,  0.02,  0.28,  0.94,-18.06, 17.96,-64.32, 16.55,  1.08, 17.84,101.37,-2773.61; 34.81,  0.31,  0.14,  0.94, -1.85,-83.42,-41.91,  8.12, 18.06,  2.28, 21.68,-656.49
Uptime 00:00:34, 28.18,  0.33, -0.24,  1.02,-30.57, -6.60,-71.38,-12.56, 17.28, 13.31, 98.15,-2782.96; 34.72,  0.12, -0.16,  0.97, 25.31, 45.26,-41.41, -9.45,  6.76,  5.30, 26.93,-661.91
Uptime 00:00:34, 28.04,  0.26, -0.00,  0.88, 16.52, 53.20,-132.68, -0.01, 16.54, 15.15,102.63,-2800.21; 34.72, -0.14,  0.07,  1.05,-16.40, -5.41,-40.78,  3.91, -7.63,  3.18, 25.85,-667.22
Uptime 00:00:34, 28.08, -0.11,  0.17,  1.15, -4.49, 80.07,-115.00,  8.18, -5.47, 14.43,111.04,-2815.39; 34.72,  0.03,  0.09,  0.96, -2.58, 64.68, -5.13,  5.31,  1.88,  2.89, 33.66,-667.89
Uptime 00:00:34, 28.13,  0.16,  0.15,  1.06, -6.45,-35.55,-64.00,  7.87,  8.31, 13.48,104.13,-2823.71; 34.81, -0.03,  0.08,  0.91,  7.07,-36.92, 13.37,  5.17, -2.05,  3.84, 28.33,-666.15
Uptime 00:00:34, 28.08,  0.36,  0.27,  0.87,  9.63, 23.00,-39.25, 16.02, 21.86, 14.76,104.56,-2828.85; 34.86,  0.17,  0.13,  0.99, 20.23,  1.57,  7.49,  7.46,  9.92,  6.51, 27.76,-665.17
Uptime 00:00:35, 28.13,  0.01,  0.12,  0.97, 34.88, 75.18,-18.04,  7.18,  0.59, 19.12,112.18,-2831.23; 34.76, -0.52,  0.21,  1.21,-37.85,  3.29,-17.62,  8.90,-22.69,  1.66, 28.09,-667.50
Uptime 00:00:35, 28.18, -0.04,  0.19,  1.15,-25.12,-57.03,-21.06,  9.43, -1.81, 15.73,102.71,-2833.97; 34.76,  0.34,  0.08,  0.93, 20.60,-45.39,-28.61,  4.73, 19.80,  4.34, 21.35,-671.22
Uptime 00:00:35, 28.13,  0.05,  0.13,  1.03, -2.52, 26.78,-65.77,  7.00,  2.74, 15.23,104.04,-2842.59; 34.81,  0.05, -0.08,  0.93, 31.65, 37.75,-22.42, -4.87,  3.05,  8.22, 25.71,-674.16
Uptime 00:00:35, 28.08,  0.17,  0.10,  0.78, 12.18, 37.50,-121.51,  6.84, 12.07, 16.65,106.61,-2858.75; 34.76, -0.13,  0.31,  1.12, -9.91,  6.47,-12.05, 15.55, -6.35,  7.08, 26.16,-675.76
Uptime 00:00:35, 28.04,  0.20,  0.26,  1.02,-18.28, 78.98,-92.00, 14.16, 10.74, 14.27,114.32,-2870.71; 34.76, -0.11,  0.21,  1.05,  3.97, 35.96, 37.34, 11.12, -5.78,  7.66, 30.34,-670.90
Uptime 00:00:35, 28.04,  0.37,  0.12,  0.94,-14.92,-18.44,-59.83,  6.54, 21.13, 12.17,109.21,-2878.67; 34.76,  0.13, -0.11,  0.96,  6.64,-22.31, 18.09, -6.23,  7.48,  8.25, 26.67,-668.50
Uptime 00:00:35, 28.13, -0.09,  0.04,  0.80, 18.33,109.75,-43.42,  3.16, -6.25, 14.35,121.24,-2884.35; 34.72,  0.15,  0.28,  1.32,-25.88, 34.61, -8.61, 11.97,  6.22,  5.03, 30.42,-669.62
Uptime 00:00:35, 28.18,  0.02,  0.28,  0.98,-20.64,-50.10,-35.13, 15.82,  1.41, 11.77,112.45,-2888.88; 34.76,  0.16,  0.24,  1.01, -2.34,-66.78,-59.62, 13.50,  8.61,  4.90, 21.13,-677.37
Uptime 00:00:36, 28.13, -0.12, -0.01,  0.96,-14.38,  0.49,-78.85, -0.76, -7.20,  9.66,110.41,-2899.29; 34.86,  0.13, -0.23,  1.00, 36.69, 50.64,-28.39,-12.97,  7.03,  9.29, 27.12,-681.12
Uptime 00:00:36, 28.08,  0.29, -0.14,  0.92, -5.22, 42.95,-151.19, -8.46, 17.44,  8.62,113.37,-2919.10; 34.67,  0.38, -0.02,  1.05,-24.61, 39.89, 21.97, -0.84, 19.77,  5.93, 31.30,-678.24
Uptime 00:00:36, 28.22, -0.03,  0.39,  1.00,-18.97, 23.75,-10.91, 21.51, -1.67,  6.45,114.18,-2920.53; 34.86, -0.16,  0.13,  1.04,-14.18, -5.42, 13.08,  7.07, -8.68,  4.13, 30.15,-676.53
Uptime 00:00:36, 28.08,  0.62,  0.01,  1.09, -3.87, 33.95,-53.45,  0.43, 29.73,  5.83,115.70,-2927.58; 34.76,  0.37, -0.23,  0.91, -1.69, 28.06, -1.90,-13.22, 21.59,  3.56, 32.75,-676.78
Uptime 00:00:36, 28.13, -0.64,  0.33,  1.14, 10.67, 52.49, 33.97, 14.10,-28.32,  7.35,120.64,-2923.17; 34.86, -0.57, -0.01,  1.13,-30.27,-44.39,-85.30, -0.51,-26.88, -0.38, 26.98,-687.87
Uptime 00:00:36, 28.13, -0.03,  0.27,  0.91,-47.16,-45.72,-31.87, 16.73, -2.00,  1.39,112.30,-2927.41; 34.86,  0.03, -0.09,  0.93, 21.62,-10.33,-16.29, -5.44,  1.75,  2.34, 25.06,-690.03
Uptime 00:00:36, 28.13, -0.10, -0.03,  0.91,  3.37, 26.10,-59.31, -1.85, -6.27,  1.76,113.51,-2935.12; 34.86, -0.09, -0.00,  0.99, 27.21, 48.24, -6.16, -0.05, -5.07,  5.76, 30.80,-690.83
Uptime 00:00:37, 28.18,  0.17,  0.23,  0.97, 27.14, 14.10,-132.55, 13.22,  9.45,  5.44,112.85,-2952.35; 34.81, -0.01,  0.20,  1.15,-25.47,-22.51,-23.50,  9.81, -0.59,  2.60, 27.33,-693.89
Uptime 00:00:37, 28.04,  0.08,  0.08,  1.01,-29.00, 40.77,-83.60,  4.71,  4.69,  1.65,115.81,-2963.46; 34.86, -0.24,  0.04,  0.99,-11.94, 44.01, 33.42,  2.34,-13.75,  1.03, 32.80,-689.44
Uptime 00:00:37, 28.18,  0.32,  0.19,  1.07, -3.10,  0.77,-48.90,  9.42, 16.46,  1.41,113.26,-2969.82; 34.76, -0.06, -0.08,  0.89, 17.47,-33.30, 12.70, -5.22, -3.66,  3.13, 27.97,-687.79
Uptime 00:00:37, 28.13,  0.25,  0.08,  0.82, -2.80, -4.82,-59.61,  5.38, 16.81,  1.13,110.05,-2977.57; 34.91,  0.29,  0.13,  0.81,  8.92, -0.39,-27.53,  8.51, 19.64,  4.38, 26.97,-691.37
Uptime 00:00:37, 28.18, -0.04,  0.24,  1.14, -0.67, 11.52,-45.26, 11.94, -1.83,  1.26,109.37,-2983.55; 34.81,  0.17,  0.08,  0.93,  0.55,-72.37,-60.72,  5.00, 10.27,  4.46, 16.86,-699.39
Uptime 00:00:37, 28.13, -0.06, -0.01,  0.98,-14.48, 25.79,-84.64, -0.62, -3.27, -0.62,110.54,-2994.55; 34.86, -0.01, -0.35,  0.99, 26.90, 15.03,-43.55,-19.42, -0.58,  7.41, 18.45,-705.05
Uptime 00:00:37, 28.13,  0.15,  0.07,  0.84, -2.42,-23.87,-89.63,  4.40,  9.94, -0.83,105.06,-3006.29; 34.86, -0.28,  0.10,  1.00, 16.81, 35.63, -4.58,  5.48,-15.59,  9.53, 22.97,-705.65
Uptime 00:00:37, 28.22,  0.30,  0.28,  0.93,-16.81, 99.70,-109.49, 16.17, 16.99, -2.67,115.52,-3020.74; 34.91, -0.18,  0.36,  0.94, -1.16, 50.77, 41.05, 20.71,-10.16,  9.60, 29.28,-700.23
Uptime 00:00:38, 28.18,  0.45, -0.23,  1.09, -4.61, -0.62,-95.67,-11.26, 21.82, -3.43,112.69,-3033.37; 34.81,  0.02, -0.41,  0.86, -5.27,-28.62, 15.63,-25.54,  1.24,  8.22, 24.97,-698.17
Uptime 00:00:38, 28.22, -0.01,  0.11,  0.93, 26.93, 25.46,-13.00,  6.86, -0.46,  0.28,113.76,-3035.10; 34.81, -0.17,  0.02,  1.21,-44.86, 22.32,-35.68,  0.91, -7.85,  2.23, 27.53,-702.91
Uptime 00:00:38, 28.18,  0.25,  0.47,  1.09,-44.49,-53.17,-87.23, 22.72, 11.80, -4.98,104.43,-3046.53; 34.91,  0.19,  0.12,  0.98,  1.18,-40.48,-56.11,  6.98, 10.85,  2.47, 21.57,-710.26
Uptime 00:00:38, 28.22,  0.03,  0.03,  0.98, 13.91, 31.04,-90.67,  1.92,  1.71, -3.07,106.26,-3058.32; 34.91, -0.12, -0.08,  1.10, 10.32, 67.78,-16.43, -4.08, -6.22,  3.66, 29.90,-712.40
Uptime 00:00:38, 28.13,  0.09,  0.00,  1.00, 11.83, 49.09,-116.71,  0.15,  5.03, -1.47,110.43,-3073.84; 34.91,  0.16, -0.05,  1.09,-51.62, 50.51, 38.36, -2.68,  8.20, -3.20, 35.72,-707.30
Uptime 00:00:38, 28.13,  0.01,  0.37,  0.99,-42.51,-50.10, 22.54, 20.40,  0.61, -6.53,101.73,-3070.86; 34.91, -0.09, -0.13,  0.99, -3.30,-25.07, 34.21, -7.68, -5.28, -3.71, 31.87,-702.78
Uptime 00:00:38, 28.13,  0.01,  0.07,  0.97, -3.85, 86.13,-34.59,  4.14,  0.68, -6.81,110.74,-3075.40; 34.81,  0.02, -0.03,  0.79, 40.82,-11.85,-19.62, -2.18,  1.35,  1.56, 29.68,-705.35
Uptime 00:00:38, 28.22, -0.29,  0.03,  1.04,  0.13,-26.21,  2.39,  1.55,-15.55, -6.62,105.42,-3075.08; 34.91, -0.05,  0.04,  0.95,-20.67,-98.07,-59.23,  2.29, -2.76, -1.12, 16.36,-713.23
Uptime 00:00:39, 28.18,  0.01, -0.47,  1.03,-20.49, 16.01,-58.44,-24.64,  0.67, -9.61,105.35,-3082.73; 34.86, -0.10, -0.48,  1.00, 19.28, 51.87,  4.82,-25.52, -5.00,  0.86, 22.79,-712.60
Uptime 00:00:39, 28.13,  0.47,  0.09,  0.97,  1.22,-56.41,-130.84,  4.84, 25.51, -9.17, 95.55,-3099.74; 34.86, -0.18,  0.08,  1.10, -1.74, 14.00, -2.69,  3.89, -9.45,  0.70, 24.31,-712.95
Uptime 00:00:39, 28.18,  0.25,  0.32,  0.98,-22.83, 74.62,-90.51, 17.41, 13.38,-11.59,103.02,-3111.69; 34.86, -0.13,  0.27,  0.99,  5.89, 58.82, 21.10, 15.24, -7.42,  1.76, 31.58,-710.16
Uptime 00:00:39, 28.18,  0.28, -0.19,  1.06,-11.85, 33.43,-98.38, -9.78, 14.65,-13.07,104.93,-3124.48; 34.91,  0.13, -0.10,  0.98, -3.91,-43.97,-17.29, -5.73,  7.76,  1.11, 25.19,-712.41
Uptime 00:00:39, 28.18,  0.24,  0.10,  0.97, 27.71, 34.78,-32.00,  5.48, 13.79, -9.11,107.05,-3128.70; 34.86, -0.06,  0.17,  1.18,-47.15, 10.64,-48.17,  8.14, -3.04, -4.85, 26.12,-718.77
Uptime 00:00:39, 28.22,  0.00, -0.01,  1.08,-34.05, 21.41,-100.33, -0.53,  0.08,-13.28,107.64,-3141.75; 34.95,  0.22, -0.27,  0.90, -0.84,-12.45,-74.86,-16.37, 13.01, -5.19, 23.76,-728.50
Uptime 00:00:39, 28.13,  0.05, -0.12,  1.03, 14.45, 33.76,-95.84, -6.68,  2.70,-11.30,109.73,-3154.20; 34.91,  0.03,  0.09,  1.02,  1.27, 60.16,-33.41,  4.96,  1.95, -4.82, 30.91,-732.84
Uptime 00:00:40, 28.22, -0.38,  0.07,  0.85, 15.10, 47.30,-91.34,  4.54,-23.77, -8.93,114.46,-3166.90; 34.95,  0.22,  0.24,  1.25,-15.53, 21.06,  6.65, 10.56,  9.90, -6.63, 32.96,-731.92
Uptime 00:00:40, 28.18, -0.02,  0.22,  1.02,-51.62,-37.83,-21.31, 12.29, -0.91,-15.08,107.37,-3169.67; 34.86, -0.13, -0.02,  0.84, -9.37,-39.75, 32.27, -1.26, -8.54, -7.72, 27.41,-727.72
Uptime 00:00:40, 28.22,  0.47,  0.08,  1.11, 23.42, 82.05,-34.84,  3.78, 22.94,-11.72,115.21,-3174.20; 34.86,  0.05,  0.03,  0.91,  7.89, 20.15, 21.71,  1.84,  2.90, -6.52, 29.37,-724.90
Uptime 00:00:40, 28.22, -0.21,  0.18,  1.16, 22.15, -0.77, 45.76,  8.70,-10.23, -8.45,113.02,-3168.16; 34.86, -0.18,  0.14,  1.18,-21.25,-40.04,-13.78,  6.61, -8.40, -9.01, 23.77,-726.72
Uptime 00:00:40, 28.22,  0.27,  0.33,  1.08,-42.92, 11.04,-47.72, 16.68, 13.47,-13.46,111.90,-3174.41; 34.95,  0.14, -0.11,  0.99, 15.47, 14.36, 18.10, -6.23,  7.88, -6.97, 24.98,-724.35
Uptime 00:00:40, 28.18,  0.14,  0.12,  0.96, -0.17, 19.18,-71.69,  7.29,  8.23,-13.06,111.94,-3183.73; 34.95, -0.26,  0.16,  0.76, 27.62, 81.48, 26.68, 11.03,-18.74, -3.09, 35.24,-720.88
Uptime 00:00:40, 28.27,  0.21,  0.10,  1.10,  7.49, 51.29,-93.98,  5.05, 10.83,-11.72,116.17,-3196.23; 34.95,  0.05,  0.11,  0.95, -0.79, 45.09, 83.83,  6.90,  3.10, -2.99, 40.35,-709.73
Uptime 00:00:40, 28.32,  0.58,  0.04,  1.14,  5.22, 37.27,-39.98,  1.61, 27.05,-10.79,118.09,-3201.47; 35.00, -0.04, -0.24,  1.06, 11.07, 14.74, 31.20,-12.99, -2.06, -1.77, 41.47,-705.64
Uptime 00:00:41, 28.22,  0.02,  0.05,  1.01, 22.10, -2.62,  0.48,  2.94,  1.16, -7.65,115.37,-3201.40; 34.95,  0.02,  0.06,  1.16,-23.42,-27.46,  6.35,  3.08,  0.84, -4.70, 37.08,-704.81
Uptime 00:00:41, 28.18,  0.19,  0.55,  0.97,-49.16, 47.14,-104.47, 29.01,  9.58,-13.18,118.88,-3214.98; 35.00,  0.29,  0.05,  0.98,  4.18,-13.00,-40.32,  2.72, 16.40, -4.02, 34.35,-710.05
Uptime 00:00:41, 28.27,  1.96,  1.04,  1.92, -0.32, 40.07,-227.14, 20.79, 42.02,-12.54,120.76,-3244.51; 34.86, -0.01,  0.02,  0.64,  7.88, 85.75, -4.48,  1.85, -1.12, -2.90, 44.61,-710.63
Uptime 00:00:41, 28.27,  0.06,  0.18,  0.88, -1.55,123.90,-121.87, 11.69,  3.89,-12.26,134.42,-3260.72; 35.00,  0.10,  0.40,  0.93, 15.66, 55.12, 21.72, 23.04,  5.73, -0.34, 50.79,-707.74
Uptime 00:00:41, 28.22, -0.15, -0.14,  1.00, 23.31, 29.75,-68.09, -7.73, -8.38, -9.20,135.69,-3269.57; 35.00,  0.07, -0.20,  0.94,-17.82,-41.07,-25.67,-11.72,  4.33, -2.84, 44.45,-711.08
Uptime 00:00:41, 28.13, -0.14,  0.16,  1.10,-20.11,-35.81,  0.54,  8.40, -6.98,-11.43,128.52,-3269.50; 34.95, -0.38,  0.06,  1.14,-35.77, 24.35,-69.44,  2.77,-18.46, -7.32, 47.06,-720.18
Uptime 00:00:41, 28.27, -0.48, -0.31,  1.03,-16.92,-32.28,-103.23,-15.33,-24.11,-13.71,122.22,-3283.23; 34.91,  0.13, -0.50,  1.10, 23.57,-54.77,-71.58,-24.09,  6.08, -4.60, 38.91,-729.62
Uptime 00:00:42, 28.22,  0.64, -0.05,  1.13, 27.23,-13.03,-133.02, -2.05, 29.39,-10.04,117.54,-3300.39; 35.00, -0.15,  0.04,  1.15,  2.32,-20.54, -6.43,  1.95, -7.53, -4.18, 35.67,-730.46
Uptime 00:00:42, 28.18,  0.09,  0.23,  0.94,-24.46, 56.20,-75.64, 13.86,  5.07,-12.72,122.36,-3310.38; 35.00, -0.30,  0.17,  0.99, -1.85, 46.03, 20.21,  9.20,-16.78, -4.15, 41.24,-727.79
Uptime 00:00:42, 28.32,  0.43,  0.08,  0.94,-54.14, 14.40,-74.30,  4.50, 24.33,-19.28,121.26,-3320.04; 35.00,  0.28, -0.17,  0.76,-14.93,-44.88, -2.95,-11.75, 19.59, -6.20, 34.31,-728.18
Uptime 00:00:42, 28.18, -0.25,  0.43,  1.11, 39.92, 63.59, 49.35, 20.58,-11.78,-13.39,127.17,-3313.62; 34.95, -0.31,  0.18,  1.21,-36.26, 17.95,-21.87,  7.97,-14.11,-10.54, 36.19,-731.02
Uptime 00:00:42, 28.13,  0.41,  0.31,  1.16,-50.84,-27.55,-30.39, 14.22, 18.75,-19.42,120.69,-3317.63; 35.00,  0.05,  0.00,  0.97, 25.59,-28.84,-20.19,  0.14,  2.68, -7.01, 31.68,-733.68
Uptime 00:00:42, 28.27, -0.09,  0.21,  0.94, 19.83,  4.10,-76.59, 12.56, -5.56,-16.25,118.91,-3327.59; 35.00, -0.32,  0.08,  0.82, 28.14, 81.14, 22.04,  5.19,-21.18, -3.19, 41.81,-730.82
Uptime 00:00:42, 28.32,  0.03,  0.09,  1.07,  9.03, 41.76,-87.90,  4.62,  1.44,-14.68,121.82,-3339.02; 35.00,  0.30, -0.07,  1.25,-32.03, 60.97, 73.57, -3.04, 13.48, -7.26, 48.47,-721.25
Uptime 00:00:42, 28.27,  0.31,  0.21,  0.96, -1.07,-24.51,  1.87, 11.85, 17.43,-14.29,115.87,-3338.77; 35.09, -0.02, -0.27,  1.00, 10.00, 11.29, 63.43,-15.36, -1.08, -6.13, 48.99,-712.88
Uptime 00:00:43, 28.22,  0.03,  0.08,  0.94, -2.40,121.47,-40.50,  5.03,  1.66,-14.21,128.99,-3344.04; 35.00,  0.11, -0.12,  0.68, 29.33,  7.35, -7.55, -9.94,  9.40, -2.47, 48.76,-713.86
Uptime 00:00:43, 28.18, -0.33,  0.22,  1.10,-18.55,-15.96, -4.07, 10.92,-16.55,-16.07,124.71,-3344.57; 35.00, -0.16,  0.06,  1.11, -4.87,-73.82,-46.61,  3.13, -7.96, -2.98, 38.53,-719.92
Uptime 00:00:43, 28.22, -0.12, -0.13,  0.94, -4.26, 11.30,-68.44, -7.57, -7.17,-16.46,123.83,-3353.67; 35.00, -0.13, -0.19,  0.98, 20.50, 12.79,-15.24,-10.65, -7.38, -0.46, 39.58,-721.95
Uptime 00:00:43, 28.27, -0.04,  0.32,  0.90, -6.98,-65.75,-79.92, 19.73, -2.16,-16.62,113.02,-3364.06; 35.00, -0.17,  0.18,  0.86, 15.36, -5.01, 28.19, 11.41,-11.20,  1.73, 38.37,-718.28
Uptime 00:00:43, 28.22,  0.62,  0.11,  1.07,-23.48,129.61,-121.75,  5.10, 29.70,-19.23,126.93,-3380.13; 35.00, -0.18,  0.19,  0.96, -4.57, 84.74, 45.90, 11.17,-10.29,  1.33, 48.77,-712.22
Uptime 00:00:43, 28.18,  0.06,  0.15,  0.98,-17.24,  6.49,-72.55,  8.72,  3.30,-20.87,125.16,-3389.56; 35.09, -0.00, -0.13,  0.96, 10.81,-21.64, 11.43, -7.78, -0.08,  2.53, 45.04,-710.74
Uptime 00:00:43, 28.27,  0.13,  0.08,  0.89, 20.97, -5.99,-54.45,  5.06,  8.02,-17.65,121.72,-3396.69; 35.14,  0.30,  0.13,  1.15,-24.84,  0.19,-11.93,  6.33, 14.43, -0.59, 43.88,-712.30
Uptime 00:00:43, 28.27, -0.00,  0.35,  1.05,-17.45, 20.65,-70.12, 18.46, -0.08,-19.19,121.96,-3405.95; 34.95,  0.13,  0.14,  0.98,  2.40, -7.65,-54.23,  7.94,  7.41, -0.11, 41.86,-719.46
Uptime 00:00:44, 28.32,  0.11,  0.13,  1.00, 14.97,-11.28,-108.33,  7.54,  5.94,-16.73,117.96,-3420.14; 35.00,  0.10, -0.07,  1.08, 14.12, 38.85,-31.65, -3.74,  5.52,  1.63, 45.90,-723.61
Uptime 00:00:44, 28.27, -0.09,  0.16,  1.07,  6.01, 31.43,-133.93,  8.38, -4.73,-15.46,119.70,-3437.55; 34.95,  0.16, -0.09,  0.99,-38.98, 58.45, 34.96, -4.99,  9.22, -3.46, 52.25,-719.06
Uptime 00:00:44, 28.32, -0.07,  0.35,  0.81,-41.82,  2.49,-10.64, 23.41, -4.38,-20.10,117.71,-3438.96; 34.95, -0.23,  0.14,  0.96,  5.54,-46.34, 12.84,  8.33,-13.34, -2.51, 45.47,-717.37
Uptime 00:00:44, 28.27,  0.01, -0.04,  1.07, 11.34, 50.43,-29.42, -2.10,  0.71,-18.29,121.77,-3442.78; 35.14, -0.07, -0.22,  0.56,  9.21,-43.56,  1.90,-21.15, -6.23, -1.71, 39.14,-717.12
Uptime 00:00:44, 28.32, -0.29,  0.23,  1.25,  3.23,-18.45, 25.15, 10.40,-12.68,-17.31,117.24,-3439.51; 35.00, -0.16,  0.01,  1.37, -9.98,-89.12,-51.81,  0.47, -6.81, -2.94, 27.14,-723.85
Uptime 00:00:44, 28.27, -0.01, -0.04,  0.99,-41.48, 15.21,-55.84, -2.58, -0.46,-22.42,116.88,-3446.94; 34.95,  0.03, -0.24,  0.92, 28.03, 11.71, -2.10,-14.56,  1.75,  0.48, 28.09,-724.13
Uptime 00:00:44, 28.32,  0.58,  0.17,  0.66,  9.29,-123.81,-140.56, 11.03, 40.30,-20.57, 97.97,-3465.21; 35.05, -0.33,  0.26,  1.08,-26.52,-10.19,  4.73, 12.79,-16.52, -2.65, 26.56,-723.52
Uptime 00:00:45, 28.27,  0.20,  0.03,  1.00,-15.70,195.30,-107.06,  1.65, 11.25,-22.15,121.05,-3479.34; 35.05,  0.10,  0.06,  1.06, 10.35, 65.96, -6.00,  2.99,  5.60, -1.20, 34.45,-724.31
Uptime 00:00:45, 28.32,  0.11,  0.13,  0.85,-19.51,-16.57,-57.38,  8.52,  7.35,-24.04,116.35,-3486.86; 34.95, -0.04, -0.11,  0.94, 38.93,-37.49,-31.30, -6.45, -2.40,  3.69, 28.99,-728.41
Uptime 00:00:45, 28.36, -0.19, -0.18,  0.74, 43.29,-50.82,-26.18,-13.48,-13.63,-18.27,107.77,-3490.29; 35.05,  0.01,  0.07,  1.11,-40.64, -4.29,-22.75,  3.79,  0.31, -1.52, 27.86,-731.39
Uptime 00:00:45, 28.32,  0.41,  0.35,  1.00, -5.06, 47.15,-93.66, 17.70, 21.34,-18.21,111.29,-3502.65; 35.05,  0.37,  0.33,  1.02, 16.98, 16.54,-57.21, 16.74, 19.11,  1.04, 29.06,-738.94
Uptime 00:00:45, 28.36, -0.57,  0.20,  0.70,-25.38, 66.63,-129.43, 12.79,-38.08,-20.82,118.31,-3519.48; 34.95, -0.43, -0.09,  0.79,-10.60, 38.53,-41.01, -5.62,-28.56, -0.44, 33.96,-744.28
Uptime 00:00:45, 28.32,  0.04,  0.45,  1.35, 43.66,-15.06,-193.57, 18.24,  1.42,-14.44,113.99,-3544.84; 35.05,  1.07,  0.03,  1.15,-40.63, 26.73, 15.87,  1.18, 43.05, -5.63, 35.85,-742.20
Uptime 00:00:45, 28.27,  0.05,  0.47,  1.00,-36.49, 97.69,-67.75, 25.04,  2.64,-18.62,124.96,-3554.25; 35.05,  0.00,  0.08,  1.15, 24.08, -8.59,-21.24,  3.84,  0.19, -2.16, 33.96,-745.15
Uptime 00:00:45, 28.32, -0.01, -0.00,  0.75, -3.85,-44.28,-69.61, -0.31, -0.89,-18.75,116.79,-3563.37; 35.05,  0.36, -0.11,  1.03,-27.15, 17.40,-22.48, -5.96, 19.17, -5.72, 35.13,-748.09
Uptime 00:00:46, 28.36, -0.11,  0.34,  0.90,-23.22,-15.34,-65.93, 20.64, -6.37,-20.94,112.62,-3572.01; 35.05,  0.02,  0.28,  0.91,  7.82,-59.96,-99.55, 16.97,  1.26, -4.26, 26.70,-761.13
Uptime 00:00:46, 28.32, -0.24, -0.15,  0.88, -5.88,-44.89,-131.87, -9.52,-15.33,-21.47,104.86,-3589.42; 35.05, -0.05, -0.14,  1.03,-19.57, -5.47,-59.76, -7.90, -2.53, -6.87, 25.51,-769.02
Uptime 00:00:46, 28.27,  0.35,  0.24,  1.24, 13.54, 17.29,-122.12, 10.70, 15.55,-19.10,104.66,-3605.29; 35.05,  0.57,  0.07,  1.02,-19.82, 27.80, 16.03,  3.27, 29.28, -9.19, 27.96,-766.94
Uptime 00:00:46, 28.32, -0.01,  0.20,  0.81,-29.56,-50.22, -9.31, 13.83, -0.80,-22.30, 96.03,-3606.53; 35.05,  0.01, -0.16,  0.88, 14.60,-15.10, 34.00, -9.97,  0.73, -7.30, 25.41,-762.42
Uptime 00:00:46, 28.36, -0.03,  0.21,  0.82, 18.10,104.24,-20.13, 14.38, -2.16,-19.24,107.54,-3609.17; 35.00,  0.44,  0.10,  0.93, -2.49, 39.78,-21.07,  5.33, 24.89, -7.37, 29.52,-765.18
Uptime 00:00:46, 28.32, -0.08,  0.18,  1.20,-43.70,-76.41,-11.51,  8.58, -3.65,-24.25, 95.73,-3610.66; 35.09, -0.06,  0.04,  0.94, 24.44,-53.64,-23.30,  2.62, -3.57, -4.05, 22.16,-768.21
Uptime 00:00:46, 28.36, -0.15,  0.07,  1.01, 34.03,  1.81,-80.21,  3.83, -8.57,-19.29, 94.22,-3621.25; 35.14,  0.04,  0.06,  1.04,  7.56, 52.71,-22.36,  3.39,  2.16, -2.93, 28.50,-771.16
Uptime 00:00:46, 28.32,  0.13,  0.07,  1.33, 12.45, 11.06,-127.60,  2.89,  5.54,-17.24, 93.64,-3637.97; 35.19,  0.47, -0.00,  1.18,-16.06,-10.14, 47.49, -0.17, 21.55, -4.93, 26.19,-764.94
Uptime 00:00:47, 28.36,  0.27,  0.11,  0.83,-44.52,-11.67, -5.58,  7.37, 18.17,-22.42, 89.92,-3638.69; 35.09,  0.16, -0.03,  0.95, -5.15, -1.39, 41.92, -2.02,  9.70, -5.53, 25.30,-759.49
Uptime 00:00:47, 28.41,  0.07,  0.16,  1.11, 31.78, 68.30, -7.90,  7.98,  3.54,-17.71, 96.88,-3639.74; 35.00,  0.13,  0.16,  0.97, -9.88, 26.04,-33.71,  9.02,  7.54, -6.52, 28.01,-763.94
Uptime 00:00:47, 28.27, -0.12,  0.12,  0.95, -8.64, 14.48,-43.37,  6.99, -7.21,-18.31, 96.94,-3645.37; 35.09, -0.05, -0.16,  0.92, 38.26,  5.03, -6.80, -9.97, -3.16, -1.71, 28.15,-764.82
Uptime 00:00:47, 28.41,  0.02,  0.41,  1.10, -2.48,-42.56,-99.49, 20.29,  0.96,-17.86, 89.43,-3658.61; 35.19, -0.17, -0.01,  0.67, 13.21, 53.81, -6.84, -0.82,-14.41,  0.03, 34.89,-765.73
Uptime 00:00:47, 28.36,  0.70,  0.55,  1.17,-13.13, 24.53,-121.20, 21.89, 28.46,-18.74, 90.20,-3674.36; 35.09,  0.32,  0.40,  1.02, -4.09, 47.49, 24.16, 20.35, 16.07, -0.09, 39.92,-762.59
Uptime 00:00:47, 28.32,  0.07,  0.00,  1.08,-54.54, -6.92,-53.67,  0.12,  3.49,-25.31, 87.44,-3681.34; 35.09,  0.17,  0.03,  1.01, -1.05, 15.90, 18.67,  1.78,  9.73, -0.19, 40.96,-760.16
Uptime 00:00:47, 28.36, -0.00, -0.10,  0.93, 31.98, 68.91,-41.28, -6.11, -0.29,-20.76, 94.68,-3686.83; 35.09,  0.01, -0.08,  0.96,-16.75, 52.47,-21.70, -4.90,  0.62, -2.46, 46.96,-763.05
Uptime 00:00:48, 28.32, -0.02,  0.24,  0.98,-19.91,-41.78,-56.93, 14.05, -1.39,-22.62, 87.45,-3694.29; 35.09,  0.04,  0.18,  0.99, 13.34,-27.79,-66.10, 10.40,  2.09, -0.49, 42.41,-771.71
Uptime 00:00:48, 28.46, -0.47,  0.06,  1.01,  5.14,-36.27,-116.48,  3.09,-25.04,-21.45, 81.58,-3709.43; 35.09, -0.31, -0.25,  0.66, -0.34, 18.59,-31.79,-19.15,-24.05, -0.91, 44.42,-775.84
Uptime 00:00:48, 28.32,  0.43,  0.08,  1.25, -3.88, 15.47,-142.13,  3.27, 18.83,-21.46, 81.59,-3728.33; 35.09,  0.46, -0.05,  1.31, -8.72, 52.30, 38.44, -2.02, 19.14, -2.07, 49.96,-770.73
Uptime 00:00:48, 28.27,  0.11,  0.53,  1.06,-58.84, 48.01,-24.76, 26.24,  5.33,-28.00, 85.97,-3731.55; 35.09,  0.14,  0.40,  1.07, 12.64,-27.15, 13.32, 20.18,  6.83, -0.01, 45.37,-769.00
Uptime 00:00:48, 28.32,  0.19, -0.17,  0.86, 32.67, 96.16,-44.70,-11.20, 11.98,-23.47, 96.35,-3737.41; 35.09,  0.35, -0.35,  1.01,-42.90, 66.53,-23.79,-18.12, 18.07, -5.88, 52.64,-772.11
Uptime 00:00:48, 28.36, -0.62,  0.44,  1.18,-37.84,-16.51,-47.67, 18.44,-26.37,-27.53, 92.82,-3743.70; 35.14,  0.04,  0.31,  1.26,  6.63, -2.83,-42.90, 13.89,  1.71, -4.63, 51.19,-777.78
Uptime 00:00:48, 28.41, -0.37, -0.36,  0.74,-32.60,-37.17,-95.66,-23.36,-23.89,-31.63, 86.67,-3756.23; 35.19, -0.15, -0.72,  0.45, 12.26, 34.25,-14.45,-56.80,-10.24, -4.10, 54.77,-779.67
Uptime 00:00:48, 28.36,  0.77, -0.02,  1.16, 20.42,-122.71,-114.74, -1.02, 33.70,-28.36, 68.27,-3771.49; 35.14,  0.46, -0.06,  1.21, 31.02,  6.90, 78.33, -2.73, 20.55, -0.03, 54.16,-769.25
Uptime 00:00:49, 28.32,  0.04,  0.31,  0.95,-50.35, 72.82,-22.84, 17.89,  2.45,-33.85, 76.13,-3774.46; 35.05,  0.23,  0.18,  1.01,-26.86,-31.56, 17.63,  9.67, 12.34, -3.25, 48.81,-766.96
Uptime 00:00:49, 28.32,  0.20, -0.41,  0.62,-13.70, 39.84,-23.46,-32.43, 14.98,-35.56, 79.38,-3777.51; 35.09, -0.13, -0.17,  1.11,  2.24, 20.70, 16.44, -8.58, -6.66, -3.08, 50.60,-764.82
Uptime 00:00:49, 28.32, -0.37, -0.30,  1.07,  3.16, 36.51,-20.71,-14.86,-18.45,-34.74, 82.92,-3780.27; 35.14,  0.06, -0.30,  0.94, 25.50,-30.65,-17.23,-17.88,  3.66, -0.05, 45.52,-767.11
Uptime 00:00:49, 28.46,  0.32, -0.03,  1.01,-16.54, 23.53,-65.38, -1.59, 17.55,-36.20, 83.93,-3788.83; 35.14,  0.20,  0.04,  1.04,  9.18,  5.14,-24.52,  2.14, 10.75,  1.17, 45.06,-770.32
Uptime 00:00:49, 28.32, -0.12, -0.27,  1.01, -7.44, 48.02,-86.94,-14.92, -6.64,-36.72, 88.51,-3800.13; 35.14,  0.17, -0.06,  1.17, -4.61, 10.54,-25.10, -3.02,  8.31,  0.50, 45.33,-773.59
Uptime 00:00:49, 28.36,  0.34, -0.21,  0.95,-18.92,-27.81,-80.09,-11.88, 19.13,-38.69, 82.73,-3810.79; 35.05,  0.27, -0.10,  0.93,  6.50, -6.37, -0.80, -5.71, 16.32,  1.23, 43.27,-773.69
Uptime 00:00:49, 28.41,  0.13, -0.13,  0.85,  1.39, -7.09,-63.34, -8.65,  8.55,-37.91, 79.99,-3819.08; 35.14,  0.08, -0.03,  0.93, 13.65,  9.02,-11.55, -1.94,  4.69,  2.91, 43.47,-775.21
Uptime 00:00:50, 28.36,  0.26, -0.08,  1.01,  7.02, 13.88,-68.73, -4.46, 14.42,-36.35, 79.87,-3828.02; 35.14,  0.16,  0.07,  0.96, -4.41,  6.97,-15.96,  3.84,  9.25,  2.37, 43.30,-777.28
Uptime 00:00:50, 28.41,  0.10,  0.08,  0.97,  7.69, 10.74,-73.75,  4.78,  5.70,-34.52, 79.56,-3837.83; 35.14, -0.04,  0.17,  0.86,-20.20, 20.19, -4.74, 11.23, -2.64, -0.08, 45.12,-777.91
Uptime 00:00:50, 28.32,  0.24, -0.12,  0.93,  4.74, 33.59,-62.16, -7.14, 14.60,-33.37, 81.96,-3845.91; 35.19,  0.10,  0.09,  1.07, -8.47, 20.30,  7.19,  4.85,  5.50, -1.07, 46.69,-776.98
Uptime 00:00:50, 28.51,  0.28, -0.06,  1.01, -0.11, -4.96,-72.65, -3.32, 15.69,-32.78, 79.36,-3855.50; 35.24, -0.05, -0.04,  1.00, -9.73,-26.80,  2.29, -2.34, -3.04, -2.35, 42.35,-776.68
Uptime 00:00:50, 28.46,  0.44, -0.17,  0.95, -2.98, 14.20,-58.07, -9.22, 24.31,-32.69, 79.10,-3863.05; 35.14,  0.17, -0.04,  1.01, -0.55, 10.83, 17.22, -2.34,  9.47, -2.42, 42.70,-774.44
Uptime 00:00:50, 28.41,  0.29, -0.04,  0.93,  8.61, 27.37,-65.81, -2.21, 17.15,-30.99, 80.66,-3871.60; 35.24, -0.06, -0.04,  1.03,  1.05, -7.41, -9.24, -2.37, -3.50, -2.28, 40.97,-775.64
Uptime 00:00:50, 28.36,  0.30, -0.06,  0.98,  1.03, 30.71,-71.25, -3.13, 17.03,-30.29, 82.71,-3881.08; 35.14,  0.30, -0.13,  1.03, -7.42, -5.58,  0.73, -6.98, 16.25, -3.34, 39.10,-775.54
Uptime 00:00:50, 28.41,  0.25, -0.06,  0.93,-22.23, 20.34,-74.76, -3.42, 14.95,-32.59, 83.35,-3890.80; 35.14,  0.17,  0.01,  0.94, -3.92,-21.49, -6.03,  0.67, 10.52, -3.76, 35.37,-776.33
Uptime 00:00:51, 28.46,  0.38, -0.09,  0.91,-17.39, 11.96,-75.17, -5.08, 22.53,-34.25, 82.75,-3900.57; 35.14,  0.26, -0.03,  0.94, -5.10,  6.27, -0.97, -1.59, 15.41, -4.37, 35.15,-776.45
Uptime 00:00:51, 28.46,  0.19, -0.19,  0.94,-18.52, 38.62,-82.13,-10.92, 11.49,-36.18, 85.86,-3911.41; 35.24,  0.10, -0.13,  1.01,  0.61,  1.49,-14.22, -7.05,  5.56, -4.35, 34.53,-778.33
Uptime 00:00:51, 28.41,  0.18, -0.13,  0.86,-17.91, 40.71,-59.31, -8.66, 11.44,-37.92, 89.10,-3919.12; 35.14,  0.20, -0.02,  1.02, -4.57,  8.12,-14.10, -1.19, 10.95, -4.86, 34.65,-780.16
Uptime 00:00:51, 28.32,  0.20, -0.16,  0.95, -3.22, 18.05,-63.32, -9.11, 11.43,-37.75, 89.39,-3927.35; 35.19,  0.18, -0.13,  1.02,  4.35,  0.68,-13.04, -7.35,  9.78, -4.36, 33.85,-781.86
Uptime 00:00:51, 28.51,  0.10, -0.12,  0.98,  5.58, 23.99,-60.79, -6.94,  5.57,-36.37, 90.76,-3935.80; 35.24,  0.20, -0.11,  0.99, -3.68, 17.77,-10.31, -5.98, 11.20, -4.89, 35.37,-783.29
Uptime 00:00:51, 28.41,  0.12, -0.04,  0.98,  2.50, 13.14,-59.86, -2.43,  6.90,-35.38, 90.48,-3943.59; 35.19,  0.10, -0.02,  0.98,  2.29,  0.24,  2.13, -1.31,  6.05, -4.53, 34.57,-783.01
Uptime 00:00:51, 28.46,  0.10, -0.11,  1.02,  8.29, 22.08,-39.55, -5.92,  5.47,-33.71, 91.42,-3948.81; 35.09,  0.18, -0.05,  0.98, -1.28, 10.35,  0.84, -2.91, 10.23, -4.66, 35.02,-782.90
Uptime 00:00:51, 28.51,  0.21,  0.05,  0.93,  9.07, 34.22,-45.97,  3.21, 12.75,-31.82, 93.70,-3954.78; 35.19,  0.11,  0.04,  0.89,  7.51,  7.96, -7.20,  2.58,  6.93, -3.56, 35.19,-783.84
Uptime 00:00:52, 28.32, -0.26,  0.08,  1.03, 17.02, 33.20,-39.61,  4.06,-13.85,-28.92, 96.36,-3959.97; 35.14,  0.01,  0.13,  0.92, 28.98,  8.41,-16.71,  8.16,  0.33,  0.39, 35.56,-786.03
Uptime 00:00:52, 28.51,  0.06,  0.37,  1.10, -1.53,-13.72,-48.27, 18.42,  3.13,-28.17, 92.60,-3966.34; 35.28,  0.17,  0.42,  0.86, 14.98, 27.17,-24.75, 25.38,  9.92,  2.83, 38.17,-789.29
Uptime 00:00:52, 28.51,  0.19, -0.19,  0.98, 38.26, -0.41,-107.16,-10.96, 10.55,-22.95, 90.48,-3980.27; 35.28,  0.36, -0.19,  1.00,-44.61, 20.48, 14.59, -9.83, 19.60, -3.11, 39.62,-787.40
Uptime 00:00:52, 28.46,  0.22,  0.22,  1.13, 14.74,-21.64,-95.86, 10.85, 10.79,-20.40, 85.70,-3992.73; 35.38,  0.06,  0.18,  1.19,  4.29,  1.12, 11.37,  8.57,  2.71, -2.33, 38.92,-785.92
Uptime 00:00:52, 28.51, -0.12,  0.33,  0.74,-46.77, 86.24,-40.88, 23.80, -8.60,-26.89, 97.76,-3999.32; 35.09,  0.02,  0.23,  0.46,  6.92,-12.84,-12.57, 26.49,  2.29, -0.66, 36.07,-787.94
Uptime 00:00:52, 28.36,  0.51, -0.43,  1.07, 31.11, 24.82,-86.04,-19.86, 23.85,-22.79, 98.49,-4010.50; 35.24, -0.05, -0.43,  0.80,-17.40,-25.20,-60.74,-28.04, -3.37, -3.42, 32.20,-795.84
Uptime 00:00:52, 28.51, -0.30,  0.42,  1.17,-19.53, 19.30,-29.40, 19.31,-13.60,-24.45, 99.27,-4014.35; 35.19,  0.14,  0.42,  1.31, 33.82, 31.35,-56.81, 17.77,  5.75,  1.34, 35.47,-803.28
Uptime 00:00:53, 28.46,  0.01, -0.00,  0.80,-11.61, 11.61,-143.28, -0.27,  0.39,-25.48, 98.79,-4033.41; 35.24, -0.16, -0.39,  0.74,  1.01,-11.97,-43.15,-27.40,-10.87,  0.90, 33.42,-809.02
Uptime 00:00:53, 28.51,  0.27,  0.16,  1.44, 28.41,-12.41,-87.46,  6.30, 10.52,-21.23, 95.03,-4044.78; 35.14,  0.04,  0.19,  1.37, 18.15, 25.83, 20.99,  7.84,  1.81,  3.35, 36.00,-806.29
Uptime 00:00:53, 28.46, -0.11,  0.61,  0.78,-46.61, 45.33,-15.29, 37.62, -6.07,-26.13, 99.16,-4046.81; 35.28, -0.18,  0.27,  0.63,  7.57,-57.47, 24.48, 22.25,-14.51,  4.71, 28.08,-803.03
Uptime 00:00:53, 28.51,  0.43, -0.78,  0.91, 61.68,125.23,-35.58,-37.82, 20.00,-18.44,112.85,-4051.47; 35.24,  0.09, -0.41,  1.12,-19.79, 39.92,-16.08,-19.95,  4.48,  1.68, 32.55,-805.14
Uptime 00:00:53, 28.46, -0.34,  0.43,  1.20,-27.58,-48.13,-31.98, 19.21,-14.85,-21.20,104.76,-4055.63; 35.24,  0.17,  0.25,  1.33, 31.24,-18.31,-26.05, 10.58,  6.99,  5.84, 29.43,-808.53
Uptime 00:00:53, 28.41, -0.39, -0.05,  0.79,-38.20,-27.55,-101.75, -2.93,-26.02,-25.78, 99.62,-4069.06; 35.33, -0.35, -0.42,  0.72,-20.86,  7.60, -6.98,-27.66,-23.02,  2.47, 30.29,-809.45
Uptime 00:00:53, 28.46,  0.55, -0.29,  1.06, 18.73,-28.13,-120.45,-13.76, 26.49,-23.15, 93.51,-4084.72; 35.24,  0.49,  0.18,  1.18, -1.19, 44.45, 73.16,  7.86, 22.48,  2.43, 34.89,-799.94
Uptime 00:00:53, 28.51, -0.01,  0.27,  1.00,-25.19, 44.01,-17.77, 15.19, -0.68,-25.62, 97.31,-4087.05; 35.33,  0.04,  0.07,  1.01,-26.05,-15.21, 18.03,  4.15,  2.00, -0.88, 32.20,-797.58
Uptime 00:00:54, 28.46,  0.27, -0.25,  0.93, 33.08, 80.01,-46.56,-14.71, 15.88,-21.12,105.39,-4093.20; 35.33,  0.23, -0.24,  0.75, 14.24, 31.02, 18.65,-16.72, 16.51,  0.64, 35.24,-795.11
Uptime 00:00:54, 28.51, -0.36,  0.27,  1.23, 18.21, 32.60, 27.45, 11.68,-15.87,-18.15,107.76,-4089.63; 35.24,  0.23,  0.14,  1.09,-35.39,-93.39,-66.58,  7.29, 11.62, -3.73, 22.41,-803.77
Uptime 00:00:54, 28.60,  0.03,  0.18,  1.01,-32.54, 10.02,-46.65,  9.98,  1.89,-21.82,106.87,-4095.83; 35.38,  0.00, -0.09,  0.99, 43.59, 34.01, -6.71, -5.34,  0.22,  1.92, 26.39,-804.66
Uptime 00:00:54, 28.60,  0.01,  0.09,  1.00,  4.87, 13.87,-62.68,  4.90,  0.34,-20.67,106.49,-4103.98; 35.33, -0.04,  0.00,  0.87, 34.64, 51.12, -1.64,  0.17, -2.66,  6.30, 32.42,-804.88
Uptime 00:00:54, 28.55,  0.03,  0.23,  1.17, 34.62,-12.50,-131.31, 11.27,  1.31,-15.62,102.74,-4121.05; 35.33,  0.27,  0.04,  1.11,-48.24, 16.96, 21.68,  2.23, 13.80,  0.07, 33.66,-802.06
Uptime 00:00:54, 28.51, -0.09,  0.34,  1.01,-20.34, 23.00,-61.22, 18.28, -4.65,-17.57,103.76,-4129.13; 35.33, -0.30,  0.19,  1.07, -8.05,-13.91, 33.84,  9.88,-15.45, -0.78, 31.50,-797.59
Uptime 00:00:54, 28.46,  0.40,  0.06,  1.06, 12.09, 12.66,-55.78,  2.84, 20.50,-15.61,102.90,-4136.44; 35.33,  0.17, -0.07,  0.92, -7.02,-42.48, -9.18, -4.48, 10.68, -1.75, 25.20,-798.79
Uptime 00:00:55, 28.60,  0.10,  0.27,  1.03, 18.35, 12.25, -0.16, 14.79,  5.54,-12.67,102.29,-4136.46; 35.33, -0.12,  0.29,  1.15,-46.84,-15.67,-36.87, 14.13, -5.92, -7.40, 22.82,-803.59
Uptime 00:00:55, 28.55,  0.11,  0.37,  1.10,-43.74, 17.85,-69.58, 18.29,  5.58,-17.75,102.46,-4145.71; 35.33,  0.17, -0.04,  0.90,  8.41, 15.45,-28.58, -2.22, 11.03, -6.20, 24.15,-807.39
Uptime 00:00:55, 28.51,  0.11,  0.22,  1.01,  9.81,  9.11,-85.78, 12.25,  6.33,-15.90,101.44,-4156.87; 35.33,  0.13,  0.13,  1.07, 20.15, 64.93,-32.81,  7.12,  6.99, -3.37, 31.80,-811.65
Uptime 00:00:55, 28.46,  0.10,  0.13,  1.07, 16.16, 34.02,-139.92,  6.99,  5.19,-13.37,103.68,-4175.20; 35.33,  0.05,  0.11,  1.13,-29.11, 45.74,  7.83,  5.33,  2.49, -6.93, 36.99,-810.63
Uptime 00:00:55, 28.41, -0.14,  0.38,  0.95,-44.35,  1.40,-41.72, 21.53, -7.79,-18.41,101.94,-4180.70; 35.33, -0.08, -0.09,  0.98,  3.07, -8.78,  1.64, -4.95, -4.46, -6.50, 35.20,-810.41
Uptime 00:00:55, 28.55, -0.09,  0.15,  1.00, -5.19,  5.72,-41.72,  8.42, -5.16,-18.54,100.74,-4186.17; 35.42,  0.08,  0.10,  0.77, 18.41,-56.95,-28.58,  7.03,  5.99, -3.86, 27.07,-814.16
Uptime 00:00:55, 28.51, -0.21,  0.20,  1.00, -2.74,-35.51,-14.85, 11.23,-11.77,-18.30, 94.33,-4188.14; 35.19, -0.16,  0.17,  0.85, -0.63,-68.92,-64.90, 11.03,-10.64, -3.65, 17.75,-822.79
Uptime 00:00:55, 28.46, -0.18, -0.25,  1.24, 12.33, 20.13,-55.45,-11.47, -8.14,-16.59, 95.17,-4195.35; 35.28,  0.17, -0.43,  1.02,  8.11, 36.88,-28.20,-22.83,  8.75, -3.00, 21.92,-826.46
Uptime 00:00:56, 28.51,  0.19,  0.25,  0.88, 12.36,  9.81,-108.68, 15.40, 11.88,-14.38, 94.28,-4209.48; 35.38, -0.47,  0.07,  1.05,  6.23, 23.95, 18.79,  3.35,-23.85, -2.08, 25.01,-824.01
Uptime 00:00:56, 28.65, -0.02,  0.42,  0.76,-19.22, 83.38,-71.09, 28.81, -1.57,-16.02,103.29,-4218.94; 35.33, -0.12,  0.32,  0.90,-12.58, 56.18, 27.26, 19.52, -7.40, -3.28, 31.98,-820.39
Uptime 00:00:56, 28.60, -0.11, -0.06,  1.08, 11.08, 23.52,-36.27, -2.97, -6.01,-14.34,104.34,-4223.65; 35.28, -0.19, -0.02,  1.09,-15.51,-58.45,  0.70, -1.20,-10.05, -5.22, 24.10,-820.30
Uptime 00:00:56, 28.55,  0.15,  0.12,  0.97,  4.45,-55.08, -0.50,  6.85,  8.84,-13.35, 95.06,-4223.72; 35.28,  0.06,  0.34,  1.19,-44.06,-45.29,-21.59, 15.97,  2.67,-10.41, 17.79,-823.10
Uptime 00:00:56, 28.41,  0.19,  0.13,  0.97,-71.94, 79.79,-79.66,  7.79, 11.26,-22.31,103.34,-4234.31; 35.38,  0.20, -0.20,  0.89, -7.54, 27.54,-29.62,-12.17, 12.36,-11.43, 20.78,-827.04
Uptime 00:00:56, 28.65,  0.31,  0.06,  0.97,-19.62,-18.96,-110.13,  3.33, 17.61,-24.31, 98.49,-4248.74; 35.33, -0.20,  0.09,  0.79,  5.86, 67.43, 19.72,  6.60,-14.18,-10.31, 29.30,-824.46
Uptime 00:00:56, 28.60,  0.17,  0.13,  0.90, -3.62,112.63,-118.33,  7.76, 10.61,-24.13,110.65,-4264.12; 35.28, -0.14,  0.29,  0.89, -1.59, 58.96, 39.98, 17.78, -8.59, -9.95, 36.40,-819.26
Uptime 00:00:56, 28.46,  0.38, -0.21,  1.20, 14.78, 16.75,-70.51, -9.55, 17.32,-21.93,110.26,-4273.43; 35.42, -0.05, -0.40,  0.93,  2.82,-42.17, -9.53,-23.33, -2.89, -9.86, 30.28,-820.52
Uptime 00:00:57, 28.51, -0.07, -0.03,  1.09, 34.56,-15.86, -4.13, -1.74, -3.52,-17.12,106.11,-4273.97; 35.38, -0.13,  0.14,  1.28,-44.79,-14.95,-28.54,  6.41, -5.79,-15.24, 27.88,-824.23
Uptime 00:00:57, 28.55,  0.12,  0.40,  1.10,-54.42, 11.38,-102.97, 20.14,  5.88,-23.79,105.42,-4288.28; 35.28,  0.29, -0.21,  1.02,  2.89,-18.14,-34.74,-11.47, 15.35,-14.77, 24.54,-829.06
Uptime 00:00:57, 28.51,  0.46, -0.03,  0.97, -7.41, -0.27,-103.31, -1.60, 25.16,-24.29,102.77,-4301.71; 35.28, -0.08,  0.09,  0.59, 17.18, 89.00,  2.00,  8.69, -7.20,-12.11, 35.54,-828.80
Uptime 00:00:57, 28.51, -0.11,  0.20,  0.99,  9.26, 79.72,-94.35, 11.24, -6.16,-22.39,111.07,-4314.07; 35.38, -0.05,  0.22,  1.02,  2.81, 63.41, 62.01, 12.19, -2.59,-11.26, 43.02,-820.68
Uptime 00:00:57, 28.60,  0.58, -0.31,  1.28, -3.51,  0.66,-73.51,-12.40, 23.69,-22.65,108.46,-4323.85; 35.38, -0.00, -0.50,  0.90, -1.71,-44.91,  0.38,-29.03, -0.02,-11.84, 36.31,-820.62
Uptime 00:00:57, 28.46,  0.15,  0.02,  0.92, 24.36, 28.48,-10.67,  1.42,  9.42,-19.06,109.73,-4325.23; 35.38, -0.07,  0.21,  1.26,-26.37,  7.19,-20.65,  9.53, -3.34,-14.77, 36.56,-823.31
Uptime 00:00:57, 28.51, -0.08,  0.48,  0.98,-33.55,-17.23,-77.89, 26.31, -3.99,-22.43,105.42,-4335.36; 35.38,  0.34,  0.13,  0.91,-10.50,-44.25,-34.19,  7.66, 20.25,-15.66, 29.79,-827.75
Uptime 00:00:58, 28.51,  0.18, -0.09,  1.05, 13.31,-11.58,-94.74, -4.87,  9.92,-20.34,101.61,-4347.96; 35.38,  0.20, -0.04,  0.92, 11.02, 55.48,-38.77, -2.13, 12.32,-13.96, 36.18,-832.91
Uptime 00:00:58, 28.60,  0.17,  0.22,  1.05, 36.67, 75.61,-133.09, 11.66,  9.05,-15.03,109.03,-4365.26; 35.47,  0.10,  0.20,  1.15,-42.03, 49.54, 11.10,  9.86,  4.92,-18.83, 41.67,-831.47
Uptime 00:00:58, 28.55, -0.12,  0.38,  0.93,-45.51,-17.43,-15.57, 22.02, -6.57,-20.09,104.76,-4367.28; 35.28, -0.05, -0.02,  0.96, -7.94,-19.59, 20.84, -1.17, -2.98,-19.49, 38.40,-828.76
Uptime 00:00:58, 28.65,  0.27,  0.07,  0.91, -1.93, 72.60,-54.90,  4.32, 16.41,-19.85,111.80,-4374.59; 35.38,  0.09,  0.02,  0.97, 38.87,-12.97,-25.87,  0.98,  5.09,-14.02, 35.84,-832.20
Uptime 00:00:58, 28.51, -0.22,  0.03,  0.92, -0.84, -6.59,  0.03,  1.76,-13.18,-19.53,108.98,-4374.58; 35.33, -0.17, -0.01,  1.09,-47.51,-74.69,-75.36, -0.62, -8.71,-19.85, 25.70,-842.07
Uptime 00:00:58, 28.60,  0.07, -0.26,  0.98,-28.51, 32.04,-74.04,-14.65,  3.87,-23.15,110.90,-4384.43; 35.42,  0.21, -0.41,  0.97, 11.62, 23.34,-32.29,-22.58, 11.40,-18.39, 28.00,-846.37
Uptime 00:00:58, 28.55,  0.17,  0.17,  0.96,-11.12,-19.52,-81.64,  9.67,  9.71,-23.91,106.00,-4395.04; 35.42, -0.17, -0.03,  0.69, 18.20, 72.62, 11.16, -2.38,-13.84,-15.75, 36.97,-844.92
Uptime 00:00:58, 28.55,  0.12,  0.14,  0.98, -6.93, 74.60,-110.73,  8.07,  6.78,-24.15,113.25,-4409.44; 35.47, -0.21,  0.19,  1.00,-14.27, 95.57, 54.27, 10.82,-11.65,-17.04, 48.64,-837.86
Uptime 00:00:59, 28.55,  0.31,  0.11,  0.97, -8.57, -9.03,-55.32,  6.06, 17.72,-24.66,109.45,-4416.80; 35.42, -0.02, -0.29,  0.98, 18.23,-40.52, 11.60,-16.72, -1.10,-14.66, 42.41,-836.32
Uptime 00:00:59, 28.51,  0.20,  0.08,  0.84, 12.26, 20.86,-63.09,  5.21, 13.05,-22.50,109.66,-4425.00; 35.42,  0.47,  0.08,  0.91,  8.00, -7.26,-23.62,  4.60, 27.09,-13.25, 40.10,-839.39
Uptime 00:00:59, 28.60, -0.00,  0.22,  1.08, -4.28, 20.60,-49.22, 11.33, -0.10,-22.37,110.09,-4431.40; 35.38,  0.31,  0.08,  0.92,-18.86,-90.05,-59.45,  4.57, 18.56,-15.30, 27.45,-847.12
Uptime 00:00:59, 28.60,  0.07, -0.07,  0.97,-17.91, 18.92,-91.20, -4.00,  3.94,-24.34,110.28,-4443.53; 35.42,  0.02, -0.24,  0.92, 21.73, 23.58,-44.26,-14.44,  1.25,-12.45, 29.95,-853.01
Uptime 00:00:59, 28.60,  0.33,  0.09,  0.85, -2.26, 45.96,-115.93,  5.58, 20.84,-24.03,113.51,-4458.60; 35.33, -0.17,  0.21,  1.04, 17.01, 42.83,-17.96, 11.04, -9.37, -9.81, 34.99,-855.34
Uptime 00:00:59, 28.55,  0.17,  0.23,  1.03,-14.31, 79.14,-117.16, 12.68,  9.20,-25.15,121.29,-4474.06; 35.42, -0.22,  0.25,  0.98,  2.81, 51.34, 17.49, 13.82,-12.39, -8.98, 41.18,-853.03
Uptime 00:00:59, 28.51,  0.26, -0.08,  1.01,-24.74,-15.22,-78.84, -4.46, 14.50,-27.88,116.64,-4484.31; 35.33, -0.02, -0.29,  0.89,  1.28,-54.29, -5.85,-18.03, -1.02, -8.99, 33.46,-853.79
Uptime 00:01:00, 28.55,  0.15, -0.01,  0.92, 20.38, 36.43,-48.62, -0.82,  9.23,-24.75,118.76,-4490.63; 35.33,  0.19,  0.15,  1.19,-28.21,  6.48,-24.02,  7.13,  8.86,-12.27, 33.44,-856.91
Uptime 00:01:00, 28.69,  0.01,  0.26,  1.01,-29.33,-22.18,-56.70, 14.17,  0.42,-27.76,113.51,-4498.11; 35.33,  0.44,  0.17,  0.92, -7.19,-36.83,-52.36,  9.46, 25.10,-12.76, 27.51,-863.82
Uptime 00:01:00, 28.65, -0.08, -0.16,  1.05,  6.74, -7.63,-87.89, -8.81, -4.25,-26.52,110.35,-4509.54; 35.52, -0.03, -0.25,  0.95, 19.08, 39.41,-36.83,-14.89, -1.82,-10.37, 32.02,-868.61
Uptime 00:01:00, 28.60,  0.09,  0.03,  1.08, 30.87, 17.21,-152.50,  1.65,  4.98,-22.03,110.24,-4529.36; 35.42,  0.43,  0.10,  1.14,-49.25, 11.00,  6.90,  4.65, 20.64,-16.35, 32.36,-867.72
Uptime 00:01:00, 28.55,  0.10,  0.36,  0.99,-27.70, 40.22,-69.48, 20.10,  5.62,-24.77,113.13,-4538.54; 35.33, -0.27,  0.26,  1.09, -1.91,  1.32,  8.62, 12.73,-13.72,-16.01, 32.16,-866.58
Uptime 00:01:00, 28.69,  0.38, -0.28,  1.04, -4.63, -1.61,-68.32,-14.05, 19.67,-25.14,110.27,-4547.42; 35.42,  0.40, -0.41,  0.76, -8.43,-42.74,-20.42,-25.47, 24.62,-17.27, 25.58,-869.23
Uptime 00:01:00, 28.65, -0.06,  0.01,  1.05, 36.01, 44.59, 21.55,  0.62, -3.53,-20.01,113.85,-4544.59; 35.42, -0.44, -0.10,  1.19,-65.76,-73.10,-71.85, -4.41,-20.09,-25.46, 16.09,-878.64
Uptime 00:01:00, 28.60,  0.21,  0.28,  0.99,-45.19,-10.38,-48.03, 15.71, 11.34,-25.23,109.99,-4551.03; 35.33,  0.41,  0.26,  1.05, 14.32,  0.27,-21.88, 12.82, 20.69,-22.81, 15.39,-881.58
Uptime 00:01:01, 28.55,  0.02, -0.13,  0.95,-10.32, 31.79,-56.41, -7.90,  1.41,-26.19,111.81,-4558.36; 35.42, -0.26, -0.38,  0.70, 19.59, 54.83, 11.74,-27.31,-18.37,-20.41, 22.43,-880.05
Uptime 00:01:01, 28.60,  0.15,  0.04,  1.16,  9.03,-43.14,-106.07,  2.09,  7.22,-24.46,103.85,-4572.36; 35.38,  0.10, -0.23,  1.01,-15.13, 32.77, 44.50,-12.57,  5.28,-22.21, 26.12,-874.18
Uptime 00:01:01, 28.55,  0.08,  0.13,  0.94,-15.93,  2.59,-54.26,  7.64,  5.01,-25.86,102.00,-4579.47; 35.33, -0.03,  0.13,  0.93,  3.92,  0.32, 38.29,  7.99, -2.03,-21.10, 25.68,-869.16
Uptime 00:01:01, 28.69,  0.37, -0.17,  0.98,  1.95, 30.94,-40.21, -9.27, 20.58,-25.28,103.49,-4584.70; 35.52,  0.17, -0.16,  0.94, 22.29,-15.27, 23.57, -9.34, 10.27,-18.03, 23.01,-866.10
Uptime 00:01:01, 28.65,  0.46, -0.17,  0.83, 13.26, 56.14,-38.36,-10.17, 28.45,-23.26,108.12,-4589.76; 35.38,  0.31, -0.05,  0.96, 15.02, 44.10, 15.74, -2.96, 17.83,-15.78, 27.90,-864.02
Uptime 00:01:01, 28.60, -0.04,  0.10,  1.00, 22.15, 39.81,-29.22,  5.87, -2.35,-19.84,111.11,-4593.59; 35.42,  0.34,  0.00,  1.13,-16.96,-24.08,-17.67,  0.14, 16.62,-17.64, 23.92,-866.34
Uptime 00:01:01, 28.65,  0.36, -0.01,  1.02,-12.19, 23.76,-44.47, -0.50, 19.68,-21.02,111.55,-4599.42; 35.42,  0.19, -0.01,  0.87, -4.73,  2.24,-28.95, -0.39, 12.64,-17.90, 23.47,-870.13
Uptime 00:01:01, 28.60, -0.05,  0.02,  1.09,  3.60, 44.20,-62.44,  1.11, -2.50,-20.11,115.09,-4607.66; 35.47,  0.09,  0.06,  1.03, 18.47, 15.29,-32.84,  3.17,  4.80,-15.09, 24.89,-874.46
Uptime 00:01:02, 28.55, -0.23, -0.04,  0.85,  6.16,-60.68,-77.72, -2.75,-15.09,-18.97,105.35,-4617.76; 35.47, -0.42, -0.11,  0.83, 12.72,-46.77,-14.68, -6.73,-26.68,-13.30, 18.97,-876.37
Uptime 00:01:02, 28.60,  0.64,  0.35,  1.06,  7.16,  9.52,-102.22, 15.94, 29.74,-17.36,103.87,-4631.15; 35.42, -0.13,  0.23,  1.06, 11.45, 12.83, -4.14, 11.97, -6.87,-11.33, 20.37,-876.91
Uptime 00:01:02, 28.65,  0.23,  0.04,  0.84,-12.37,-32.73,-73.78,  2.75, 15.33,-18.57, 97.22,-4640.96; 35.42,  0.11, -0.21,  0.87, -4.52,-35.65,  0.88,-13.23,  7.05,-11.96, 15.18,-876.80
Uptime 00:01:02, 28.60,  0.42,  0.07,  1.13,  5.66, 54.71,-52.07,  3.26, 20.20,-17.41,101.85,-4647.73; 35.38,  0.36, -0.12,  1.03, -4.49,-13.53,-15.03, -6.52, 19.40,-12.42, 12.76,-878.75
Uptime 00:01:02, 28.69,  0.44,  0.22,  0.90, -3.94, -3.32,-61.00, 12.42, 25.48,-17.32, 98.87,-4655.79; 35.47,  0.38,  0.09,  0.91,  0.81,-40.60, -8.05,  5.21, 22.75,-11.96,  6.80,-879.81
Uptime 00:01:02, 28.60,  0.44,  0.09,  0.90, -7.55, -6.05,-63.61,  5.28, 26.02,-17.83, 95.60,-4664.06; 35.47,  0.51, -0.06,  0.84,  0.08,-42.98, -1.52, -3.20, 31.28,-11.78,  0.56,-880.01
Uptime 00:01:02, 28.74,  0.48,  0.08,  0.90, -5.76,  5.41,-57.31,  4.68, 27.87,-18.12, 93.82,-4671.51; 35.47,  0.56, -0.03,  0.85,  1.40, -4.95, -1.81, -1.94, 33.12,-11.40, -0.74,-880.24
Uptime 00:01:03, 28.69,  0.51,  0.11,  0.85, -6.34,  3.75,-59.60,  6.21, 31.04,-18.49, 91.83,-4679.79; 35.56,  0.53,  0.00,  0.79,  4.37, -0.14, -0.48,  0.16, 33.60,-10.57, -1.42,-880.31
Uptime 00:01:03, 28.65,  0.46,  0.08,  0.88, -2.25, 18.16,-53.14,  4.82, 27.56,-18.32, 91.78,-4686.75; 35.56,  0.49,  0.01,  0.80,  4.29, -0.02, -1.21,  0.63, 31.49, -9.80, -2.02,-880.47
Uptime 00:01:03, 28.69,  0.58,  0.15,  0.85,  7.62, 29.44,-48.39,  8.49, 34.19,-16.81, 93.01,-4693.04; 35.38,  0.62,  0.05,  0.83,  7.63, 21.40,  4.74,  2.71, 36.84, -8.58,  0.01,-879.85
Uptime 00:01:03, 28.65,  0.71,  0.26,  0.86,  2.71,108.14,-42.06, 13.18, 38.20,-15.86,104.37,-4698.59; 35.38,  0.53,  0.17,  0.79,  7.50,136.09, 24.21,  9.94, 33.20, -7.24, 16.95,-876.66
Uptime 00:01:03, 28.69,  0.13,  0.18,  0.71, 42.55, 87.98,-21.60, 14.02,  9.84, -9.80,113.38,-4701.42; 35.47,  0.25,  0.21,  1.53, -4.89, 96.25, -8.90,  7.57,  9.03, -7.57, 28.78,-877.82
Uptime 00:01:03, 28.74,  0.01,  0.20,  1.11,  2.00, 35.90,-55.29, 10.07,  0.60, -9.15,115.68,-4708.61; 35.47, -0.03, -0.20,  1.06, 10.17, 29.80, -8.28,-10.57, -1.39, -6.33, 32.03,-878.90
Uptime 00:01:03, 28.69,  0.01,  0.34,  1.07, 24.29, 28.33,-84.32, 17.46,  0.30, -5.47,117.02,-4719.74; 35.47, -0.28,  0.16,  0.97, -4.47, 55.86,-29.01,  9.24,-15.69, -6.60, 38.93,-882.73
Uptime 00:01:03, 28.65, -0.36,  0.23,  0.93,  6.01,  1.49,-81.74, 12.99,-20.90, -4.34,115.29,-4730.37; 35.47, -0.12,  0.20,  1.08, -9.97,-51.70, -1.21, 10.58, -6.38, -7.53, 31.69,-882.89
Uptime 00:01:04, 28.69,  0.12,  0.24,  0.98,-19.22, 41.55,-33.95, 13.76,  6.66, -6.48,118.27,-4734.88; 35.47, -0.03,  0.05,  0.91,  4.67,-17.00, 43.55,  3.33, -1.77, -6.70, 28.88,-877.09
Uptime 00:01:04, 28.74,  0.12,  0.16,  0.91,  7.52, 44.63,  0.16, 10.03,  7.21, -5.19,121.44,-4734.86; 35.56,  0.10, -0.03,  0.85, -6.98,-16.39, 14.99, -1.94,  6.89, -7.49, 26.08,-875.15
Uptime 00:01:04, 28.69, -0.26,  0.18,  1.23, 13.13,  6.42, 27.06,  8.23,-11.67, -3.25,120.06,-4731.34; 35.47, -0.43,  0.14,  1.09, -3.01, 11.90,-15.52,  6.89,-21.17, -7.59, 27.49,-877.16
Uptime 00:01:04, 28.79,  0.11,  0.34,  1.05,-48.52,  6.66,-35.75, 17.78,  5.56, -9.16,118.42,-4736.10; 35.47,  0.11,  0.11,  1.08, -6.96, 22.94, 18.96,  6.00,  5.54, -8.23, 29.82,-874.64
Uptime 00:01:04, 28.79, -0.06,  0.11,  0.97,  2.71,-24.70,-73.14,  6.67, -3.36, -8.49,112.95,-4745.68; 35.52, -0.30, -0.06,  0.70, 23.10, 55.89, 39.86, -4.13,-23.04, -5.18, 36.86,-869.42
Uptime 00:01:04, 28.69,  0.64,  0.11,  1.03,  5.33, 23.46,-124.16,  5.04, 31.74, -7.54,113.04,-4761.82; 35.42,  0.35,  0.04,  1.07,-18.03, 56.96, 79.75,  1.84, 17.86, -7.34, 43.03,-859.05
Uptime 00:01:04, 28.79,  0.14,  0.22,  1.10, -9.04, 22.57,-30.41, 11.50,  7.13, -8.33,113.56,-4765.84; 35.52, -0.08, -0.13,  1.04, 18.08, 10.13, 34.36, -7.28, -4.53, -5.00, 43.57,-854.52
Uptime 00:01:05, 28.74, -0.12,  0.05,  0.85, -5.41, 38.57,-43.97,  2.99, -7.97, -8.79,116.36,-4771.55; 35.47,  0.16, -0.02,  0.69,  9.66,-46.02,-10.16, -1.82, 12.95, -3.70, 36.57,-855.84
Uptime 00:01:05, 28.79, -0.03,  0.21,  1.12,-12.75, -8.77, -5.84, 10.76, -1.52,-10.04,112.94,-4772.32; 35.52,  0.06,  0.21,  0.93, 10.26,-62.26,-57.07, 12.93,  3.73, -2.05, 27.77,-863.31
Uptime 00:01:05, 28.74, -0.23, -0.11,  0.93,-27.50, 39.59,-80.82, -6.32,-13.59,-13.52,116.07,-4782.99; 35.52, -0.11, -0.26,  0.92, 14.34, 38.58,-30.36,-15.62, -6.70, -0.47, 32.34,-867.32
Uptime 00:01:05, 28.79,  0.21,  0.08,  0.82, -3.99,-14.70,-110.87,  5.38, 14.57,-13.65,111.59,-4797.40; 35.52, -0.29,  0.16,  1.06,-10.20, 13.61,-18.34,  8.09,-15.14, -1.60, 33.73,-869.70
Uptime 00:01:05, 28.79,  0.11,  0.32,  0.89,-20.54,101.50,-101.64, 19.87,  6.38,-15.66,122.46,-4810.92; 35.52, -0.20,  0.38,  0.97, -1.91, 48.67, 11.31, 20.88,-10.99, -1.40, 39.62,-868.20
Uptime 00:01:05, 28.69,  0.25, -0.10,  1.08,-15.29,  5.41,-84.30, -5.20, 12.96,-17.40,120.44,-4821.88; 35.52, -0.04, -0.26,  0.92,  2.29,-60.28, -9.03,-15.50, -2.68, -1.39, 31.20,-869.37
Uptime 00:01:05, 28.79,  0.12,  0.09,  1.05, 17.84,-10.68,-19.23,  5.01,  6.62,-14.67,116.54,-4824.38; 35.52, -0.03,  0.07,  1.19,-36.06, -1.67,-49.47,  3.17, -1.46, -5.89, 30.39,-875.80
Uptime 00:01:05, 28.74,  0.17,  0.41,  1.15,-35.29,-12.19,-102.30, 19.23,  8.00,-18.56,112.47,-4837.88; 35.52,  0.31,  0.16,  0.90,-23.04,-13.88,-50.07,  9.50, 18.70, -8.56, 27.62,-882.41
Uptime 00:01:06, 28.74,  0.16,  0.03,  0.93, 13.87,  3.03,-124.45,  1.69,  9.54,-16.37,110.42,-4854.18; 35.52,  0.03, -0.10,  0.88,  3.82, 40.77,-20.77, -6.24,  1.93, -8.03, 32.26,-885.13
Uptime 00:01:06, 28.69,  0.20,  0.04,  1.06, 24.38, 21.41,-150.93,  1.92, 10.45,-12.90,110.73,-4873.80; 35.52,  0.30,  0.04,  1.08,-41.34, 42.97, 19.87,  2.16, 15.45,-13.09, 36.78,-882.55
Uptime 00:01:06, 28.79,  0.28,  0.35,  0.98,-53.00,  3.03,-57.92, 19.05, 15.11,-19.12,108.60,-4881.45; 35.52, -0.12,  0.06,  1.03, -1.15,-26.04,-12.97,  3.41, -6.89,-12.91, 32.82,-884.26
Uptime 00:01:06, 28.74,  0.36, -0.16,  0.90,  0.59, 63.76,-83.08, -9.41, 21.67,-18.85,114.19,-4892.33; 35.52,  0.23, -0.17,  0.97, 17.74, -1.76,-32.19, -9.53, 13.22,-10.56, 31.67,-888.48
Uptime 00:01:06, 28.79, -0.22,  0.17,  1.23, 32.65, 59.24,  6.16,  7.89,-10.07,-14.06,119.82,-4891.51; 35.52, -0.43, -0.14,  1.12,-49.07,-29.61,-81.45, -6.45,-20.65,-16.88, 27.59,-899.31
Uptime 00:01:06, 28.65,  0.04,  0.19,  1.17,-35.59,-43.32,-72.77,  9.43,  1.92,-18.12,111.87,-4900.97; 35.52,  0.04,  0.02,  1.05, -5.54,-30.84,-40.26,  0.94,  2.36,-17.22, 23.06,-904.55
Uptime 00:01:06, 28.79, -0.05, -0.15,  0.89, -6.55, 41.11,-58.76, -9.65, -3.35,-18.79,114.98,-4908.67; 35.52, -0.14, -0.07,  0.92, 20.43, 63.69, -2.51, -4.22, -8.87,-14.34, 30.95,-904.87
Uptime 00:01:06, 28.74,  0.01,  0.07,  1.04, 31.33, 25.61,-127.89,  3.72,  0.31,-14.26,116.01,-4925.68; 35.52,  0.27,  0.02,  0.94,-52.78, 36.94, 15.34,  1.05, 16.06,-20.91, 34.83,-902.83
Uptime 00:01:07, 28.79,  0.06,  0.41,  1.03,-32.48,-14.68,-25.40, 21.70,  3.07,-17.68,111.76,-4928.98; 35.42, -0.08,  0.14,  0.98,-24.38,-12.89, 23.61,  7.88, -4.36,-23.44, 32.58,-899.77
Uptime 00:01:07, 28.74,  0.15,  0.01,  1.11,  5.98, 58.86,-31.38,  0.37,  7.84,-16.56,116.86,-4933.06; 35.52,  0.04, -0.14,  0.94,  6.31,-17.67, -2.83, -8.49,  2.42,-22.34, 29.63,-900.13
Uptime 00:01:07, 28.79, -0.14,  0.15,  1.10, 15.37, -6.60, 31.03,  7.64, -7.36,-14.07,113.81,-4928.94; 35.61, -0.15,  0.10,  1.08,-34.37,-52.81,-36.02,  5.28, -7.71,-26.27, 22.30,-904.92
Uptime 00:01:07, 28.84,  0.22,  0.51,  1.03,-54.35,  6.48,-59.40, 25.63, 10.69,-20.25,112.16,-4936.72; 35.52,  0.12,  0.08,  0.88,  2.09, 31.26,  7.92,  5.42,  7.95,-25.37, 25.71,-903.89
Uptime 00:01:07, 28.88,  0.07,  0.20,  0.83,-15.13,-20.30,-78.88, 13.38,  4.90,-21.51,107.23,-4946.97; 35.52, -0.09,  0.20,  0.99, 24.49, 39.45, 25.52, 11.39, -5.21,-21.51, 30.33,-900.57
Uptime 00:01:07, 28.84,  0.44,  0.08,  1.08,  8.65, 37.00,-141.69,  3.73, 22.16,-19.88,109.46,-4965.82; 35.61,  0.38,  0.22,  1.10,-38.38, 48.10, 53.00, 10.64, 18.93,-25.87, 35.61,-893.52
Uptime 00:01:07, 28.79,  0.00,  0.14,  1.06,-35.01,  6.82,-45.72,  7.51,  0.15,-23.82,108.15,-4971.81; 35.56, -0.10, -0.27,  1.02,  6.82, -4.78, -0.10,-14.87, -5.32,-24.77, 34.39,-893.53
Uptime 00:01:08, 28.74,  0.02,  0.04,  0.94,  5.40, 23.37,-61.52,  2.69,  1.05,-22.59,109.01,-4979.99; 35.52,  0.43,  0.07,  0.79, 20.75,-60.39,-42.65,  4.38, 28.36,-21.49, 25.27,-899.20
Uptime 00:01:08, 28.79, -0.11,  0.26,  0.90, -3.93,-17.78,-46.35, 15.81, -6.94,-22.32,104.70,-4986.01; 35.56,  0.05,  0.37,  0.88, 10.78,-72.17,-81.44, 22.87,  2.90,-19.23, 15.51,-909.79
Uptime 00:01:08, 28.84, -0.13, -0.14,  1.16, 11.51, -9.15,-93.97, -6.65, -6.35,-20.54,101.57,-4998.23; 35.52,  0.16, -0.30,  1.00, 18.46, 40.06,-44.63,-16.53,  8.56,-16.82, 20.13,-915.59
Uptime 00:01:08, 28.79,  0.20, -0.09,  0.96, 23.60, 44.53,-145.75, -5.21, 11.84,-17.16,105.10,-5017.61; 35.47,  0.09,  0.23,  1.20,-32.05, 22.59,-34.87, 10.75,  4.02,-20.45, 22.59,-920.23
Uptime 00:01:08, 28.84, -0.04,  0.51,  0.99,-28.48, 14.57,-36.38, 27.13, -2.05,-19.90,104.90,-5022.34; 35.52, -0.26,  0.18,  1.05, -7.94,-15.81,  6.82,  9.47,-13.54,-20.86, 20.40,-919.34
Uptime 00:01:08, 28.79,  0.05, -0.23,  0.76, -9.64, 84.72,-69.46,-16.64,  3.46,-21.06,113.52,-5031.37; 35.61,  0.18,  0.01,  0.92, 20.29,-34.77,-40.37,  0.38, 11.13,-17.85, 15.34,-924.59
Uptime 00:01:08, 28.74, -0.34,  0.11,  1.06,  9.40,-14.70,-11.26,  5.51,-17.60,-19.25,109.60,-5032.94; 35.56, -0.08,  0.06,  0.97,  0.38,-71.61,-78.83,  3.76, -4.59,-17.37,  5.37,-935.55
Uptime 00:01:08, 28.79, -0.04, -0.27,  1.06,-15.21, -9.95,-71.31,-14.06, -2.17,-21.10,106.18,-5042.28; 35.56,  0.25, -0.46,  1.03, 13.36, 42.21,-21.76,-23.51, 12.43,-15.77, 10.43,-938.40
Uptime 00:01:09, 28.74, -0.04, -0.12,  0.91, -2.48, 29.52,-88.68, -7.64, -2.53,-21.15,107.87,-5053.81; 35.56, -0.17,  0.04,  0.88,  0.72, 28.70,  5.13,  2.78,-10.75,-15.31, 14.09,-937.73
Uptime 00:01:09, 28.79,  0.06,  0.25,  1.04, -2.13, 45.64,-46.39, 13.22,  3.43,-20.74,111.63,-5060.02; 35.56, -0.24,  0.25,  0.98,-18.69, 30.09, 41.49, 13.73,-13.17,-17.18, 18.02,-932.17
Uptime 00:01:09, 28.74,  0.39, -0.20,  1.26, 27.00, 34.37,-41.93, -8.55, 17.12,-17.03,113.47,-5065.52; 35.47, -0.09, -0.31,  0.91, -8.58,-10.55, 25.17,-18.60, -5.33,-18.31, 16.42,-928.88
Uptime 00:01:09, 28.79, -0.29,  0.03,  0.92, 26.52,-39.22, 37.90,  2.02,-17.34,-13.22,106.48,-5060.52; 35.56, -0.18,  0.35,  1.36,-16.40,-55.29,-14.36, 14.15, -7.20,-19.79,  9.08,-930.77
Uptime 00:01:09, 28.74,  0.16,  0.20,  1.02,-51.65,  5.75,-42.61, 10.93,  8.78,-19.36,104.91,-5066.10; 35.66,  0.28, -0.06,  0.97, 12.29, -1.64, 25.46, -3.33, 15.87,-17.88,  8.37,-927.44
Uptime 00:01:09, 28.88,  0.28,  0.14,  0.84, -4.92,  4.13,-96.93,  8.96, 18.01,-19.43,102.98,-5078.79; 35.56, -0.05,  0.19,  1.01, 17.65, 64.44, 26.30, 10.47, -2.90,-15.05, 16.53,-923.99
Uptime 00:01:09, 28.79,  0.17, -0.05,  1.02, 12.68, 77.70,-137.46, -2.58,  9.35,-17.45,110.78,-5096.94; 35.66,  0.35,  0.10,  1.14,-42.99, 62.15, 56.77,  4.61, 16.75,-20.22, 23.91,-916.50
Uptime 00:01:10, 28.88,  0.37,  0.30,  0.98,-20.58, -5.26,-38.44, 16.18, 19.89,-19.40,107.50,-5101.94; 35.56,  0.00, -0.19,  0.97, 16.18, -9.90,  2.53,-11.20,  0.07,-17.97, 22.17,-916.17
Uptime 00:01:10, 28.84, -0.07, -0.06,  0.94, -1.33, 26.40,-63.93, -3.77, -4.44,-19.26,108.80,-5110.25; 35.56,  0.37,  0.03,  0.79, 10.44,-43.82,-30.36,  2.10, 25.18,-16.24, 15.64,-920.11
Uptime 00:01:10, 28.88, -0.08,  0.38,  0.98,-11.64,-15.78,-67.29, 21.28, -4.28,-19.96,104.66,-5119.20; 35.56,  0.12,  0.36,  0.94,  6.50,-77.12,-62.84, 21.09,  6.54,-14.65,  5.14,-928.47
Uptime 00:01:10, 28.74, -0.13, -0.24,  1.11, -2.20,-33.49,-102.15,-12.10, -6.43,-20.09, 98.43,-5132.48; 35.52,  0.17, -0.36,  0.86, 30.08, 22.38,-50.28,-22.56, 10.27,-10.97,  7.68,-935.01
Uptime 00:01:10, 28.79,  0.64, -0.11,  1.02, 25.72, 79.06,-166.79, -5.24, 31.94,-16.51,105.89,-5154.16; 35.56,  0.03,  0.09,  1.11,-29.02, 13.29,-39.97,  4.78,  1.46,-14.36,  9.19,-940.20
Uptime 00:01:10, 28.88, -0.08,  0.40,  0.99,-11.29, -1.57,-80.99, 21.79, -4.53,-17.22,103.66,-5164.93; 35.56, -0.34,  0.25,  1.07, -8.95, -6.10, -3.59, 12.36,-17.03,-14.98,  8.56,-940.68
Uptime 00:01:10, 28.79,  0.28,  0.01,  1.09, 27.20, 56.28,-77.37,  0.58, 14.68,-13.42,108.41,-5174.91; 35.52,  0.28, -0.21,  0.88, -5.34,-23.44,-30.32,-12.96, 16.93,-15.62,  5.07,-944.62
Uptime 00:01:10, 28.79,  0.04, -0.01,  1.10, 24.35, 10.72,  4.75, -0.59,  2.23,-10.02,107.58,-5174.28; 35.52, -0.39,  0.08,  1.16,-73.04,-27.46,-84.68,  3.72,-18.72,-24.68,  1.79,-955.80
Uptime 00:01:11, 28.88,  0.17,  0.33,  1.28,-33.33, -3.60,-100.62, 14.51,  7.28,-13.81,104.82,-5187.47; 35.66,  0.30, -0.05,  1.05,  6.76, 10.16,-35.16, -2.66, 15.79,-23.37,  2.74,-960.40
Uptime 00:01:11, 28.93,  0.22,  0.02,  0.95, -6.54, 13.30,-96.67,  1.11, 12.74,-14.35,104.18,-5200.13; 35.61, -0.08,  0.01,  0.71,  8.14, 84.50, 16.38,  0.40, -6.76,-21.85, 13.67,-958.26
Uptime 00:01:11, 28.69,  0.05,  0.07,  1.12, 11.75, 46.60,-99.49,  3.67,  2.76,-12.47,108.07,-5213.26; 35.52,  0.02,  0.10,  1.01,-12.34, 70.04, 80.50,  5.92,  0.86,-22.89, 22.44,-947.63
Uptime 00:01:11, 28.84,  0.24,  0.23,  0.83,-26.08,-28.45,-19.52, 14.80, 15.46,-15.24,101.97,-5215.80; 35.52,  0.04, -0.16,  0.93,  4.81,-27.12, 13.93, -9.84,  2.32,-22.02, 18.49,-945.82
Uptime 00:01:11, 28.84, -0.03,  0.01,  0.86, -1.82, 34.48,-22.48,  0.69, -1.93,-15.16,104.40,-5218.75; 35.61,  0.18,  0.02,  0.89, 22.03,-18.04, -1.07,  0.95, 11.34,-18.73, 15.58,-945.96
Uptime 00:01:11, 28.93, -0.03,  0.32,  1.00,-12.98,-33.93,-23.97, 17.49, -1.90,-16.18, 97.96,-5221.91; 35.61,  0.25,  0.31,  0.96, -5.68,-60.89,-33.39, 17.60, 14.01,-18.74,  7.11,-950.37
Uptime 00:01:11, 28.79, -0.10, -0.08,  1.08,  6.21, 11.14,-78.51, -3.97, -5.03,-15.15, 97.52,-5232.12; 35.61,  0.12, -0.32,  1.03, 22.50, 51.67,-31.20,-17.27,  6.12,-15.84, 13.43,-954.42
Uptime 00:01:11, 28.69,  0.15,  0.04,  1.02, 32.39, 15.30,-119.34,  2.33,  8.45,-10.61, 97.38,-5247.87; 35.61,  0.21,  0.10,  1.12,-31.36, 30.36,  0.53,  4.95, 10.61,-19.48, 16.87,-954.35
Uptime 00:01:12, 28.88, -0.25,  0.60,  0.95,-51.79, 42.16,-33.06, 31.11,-12.66,-16.42,101.10,-5252.20; 35.61, -0.22,  0.08,  1.06,-12.47,  8.48, 22.71,  4.26,-11.86,-20.61, 17.86,-951.38
Uptime 00:01:12, 28.84, -0.07,  0.19,  0.96,  5.25, 30.46,-35.25, 11.48, -4.25,-15.20,103.04,-5256.78; 35.52,  0.13,  0.10,  0.79, 36.55,-54.46,-33.15,  6.87,  9.28,-15.40, 10.38,-955.69
Uptime 00:01:12, 28.79, -0.05,  0.13,  1.04, -4.35,-41.43,-12.32,  7.29, -2.61,-15.31, 95.67,-5258.41; 35.61, -0.19,  0.12,  0.96,-11.50,-72.62,-73.33,  6.96,-11.14,-16.44,  1.00,-965.37
Uptime 00:01:12, 28.88, -0.29, -0.24,  1.31, 16.16, -3.78,-93.77,-10.32,-12.31,-13.14, 93.52,-5270.69; 35.52,  0.05, -0.38,  0.99, 20.60, 28.13,-31.62,-20.96,  2.59,-13.89,  4.54,-969.51
Uptime 00:01:12, 28.74,  0.25,  0.02,  1.02, 11.29, 15.70,-122.68,  1.03, 13.76,-11.41, 93.38,-5286.64; 35.61, -0.31,  0.14,  1.10,-19.31, 11.49,-22.89,  7.04,-15.81,-15.93,  6.23,-972.49
Uptime 00:01:12, 28.88,  0.01,  0.53,  1.07,-30.48, 39.29,-50.56, 26.60,  0.31,-14.60, 96.59,-5293.31; 35.61, -0.14,  0.20,  1.05, -6.92, 20.12,  8.00, 10.80, -7.30,-16.29,  8.86,-971.43
Uptime 00:01:12, 28.93, -0.01, -0.02,  0.80, -5.53, 87.99,-72.44, -1.32, -0.88,-15.03,105.88,-5302.73; 35.61,  0.11, -0.02,  0.91, 17.66,-20.72,-28.72, -1.09,  6.81,-13.74,  5.90,-975.17
Uptime 00:01:13, 28.98, -0.03,  0.07,  1.15, 10.62,-27.93, -7.14,  3.60, -1.72,-13.31,100.24,-5303.66; 35.61, -0.18, -0.06,  0.99,-31.21,-70.94,-94.46, -3.20,-10.27,-17.50, -3.05,-987.45
Uptime 00:01:13, 28.93, -0.21, -0.09,  1.02,-19.07,-10.68,-98.58, -4.87,-11.53,-15.61, 97.08,-5316.67; 35.61,  0.23, -0.43,  1.05, 25.62, 13.58,-47.50,-21.63, 11.61,-14.27, -1.46,-993.72
Uptime 00:01:13, 28.88, -0.11,  0.04,  0.87, 14.07, 31.12,-80.61,  2.81, -7.35,-13.45, 99.25,-5327.15; 35.61, -0.22,  0.15,  1.08, -3.66, 10.58,  2.10,  7.70,-11.44,-14.30,  0.14,-993.44
Uptime 00:01:13, 28.84,  0.11,  0.34,  1.00, -9.26, 45.46,-66.94, 18.70,  5.88,-14.01,103.08,-5336.05; 35.61, -0.15,  0.42,  0.96, -4.14, 17.11, 44.55, 23.52, -8.36,-14.08,  2.54,-987.52
Uptime 00:01:13, 28.88,  0.29, -0.05,  1.28, 10.12,  2.95,-42.58, -2.28, 12.82,-12.47,101.14,-5341.63; 35.61,  0.03, -0.21,  0.99,-12.86,-18.63,  6.47,-11.90,  1.56,-15.69,  0.06,-986.67
Uptime 00:01:13, 28.84,  0.03,  0.09,  1.12, 10.62,-27.37,  8.58,  4.56,  1.71,-10.78, 95.59,-5340.52; 35.61, -0.26,  0.07,  1.29,-26.31,-44.77,-34.17,  3.15,-11.54,-18.66, -5.41,-991.11
Uptime 00:01:13, 28.88,  0.26,  0.30,  1.09,-51.18, 14.56,-86.15, 15.01, 12.96,-16.94, 95.32,-5351.97; 35.61,  0.45,  0.05,  1.01, -6.53, 30.09, -5.87,  2.46, 23.79,-19.09, -1.86,-991.89
Uptime 00:01:13, 28.88,  0.16,  0.13,  0.93, -3.68, -0.73,-119.54,  7.95,  9.91,-16.91, 93.12,-5367.63; 35.61, -0.02, -0.15,  0.55, 23.07, 91.38, -6.07,-15.51, -2.40,-16.06,  9.96,-992.69
Uptime 00:01:14, 28.98,  0.32, -0.03,  0.92,  0.27,141.69,-143.89, -1.63, 19.44,-16.57,108.92,-5386.34; 35.56,  0.18,  0.10,  1.00, 20.76, 81.45, 43.97,  5.82,  9.87,-12.98, 19.94,-986.97
Uptime 00:01:14, 28.93,  0.15,  0.28,  0.98,-48.52, -0.18,-51.74, 15.56,  8.24,-22.20,106.56,-5393.17; 35.61, -0.00, -0.17,  0.93, 15.07,-55.97,-20.43,-10.54, -0.26,-10.98, 12.31,-989.67
Uptime 00:01:14, 28.98, -0.48, -0.16,  0.43,  1.11,-10.47,-65.40,-14.17,-46.21,-21.90,104.02,-5401.67; 35.71,  0.46,  0.18,  1.21,-23.01, -6.59,-13.18,  7.95, 20.38,-13.53, 10.81,-991.38
Uptime 00:01:14, 29.02, -0.12,  0.17,  1.01,  5.83,-10.30,-58.50,  9.48, -6.88,-20.53,100.76,-5409.27; 35.61,  0.22,  0.23,  0.94, 13.57,-46.66,-61.03, 13.48, 12.89,-11.26,  4.39,-999.32
Uptime 00:01:14, 28.98, -0.09, -0.24,  1.04,  0.45, 10.22,-94.41,-12.91, -4.66,-20.32,100.23,-5422.40; 35.66,  0.11, -0.30,  0.95, 18.41, 35.03,-50.78,-17.63,  6.27, -8.88,  8.95,-1006.37
Uptime 00:01:14, 28.93, -0.10,  0.07,  1.03, 36.65, 21.30,-117.75,  3.86, -5.35,-15.16,101.05,-5437.70; 35.61,  0.15,  0.21,  1.32,-20.00, 25.20, -7.30,  9.09,  6.27,-11.07, 11.86,-1007.32
Uptime 00:01:14, 28.79, -0.09,  0.47,  1.03,-26.86, 22.69,-53.42, 24.45, -4.78,-17.87,102.08,-5444.81; 35.66, -0.35,  0.21,  0.94,-12.90, -7.87, 15.46, 11.78,-19.77,-12.29, 10.99,-1005.27
Uptime 00:01:14, 28.93,  0.65, -0.21,  1.04,  8.93, -8.07,-58.50, -9.68, 31.27,-16.57, 98.38,-5452.41; 35.56,  0.19, -0.29,  0.86,  4.00,-24.83,  4.03,-18.03, 11.72,-11.90,  7.38,-1004.74
Uptime 00:01:15, 28.88, -0.42,  0.22,  1.14, 22.82, 74.27, 32.19, 10.41,-19.86,-13.12,106.28,-5448.23; 35.66, -0.46,  0.05,  1.25,-32.69, 16.71,-39.39,  2.20,-20.29,-15.78,  9.76,-1009.87
Uptime 00:01:15, 28.93,  0.01,  0.27,  0.98,-81.16,-59.46,-30.27, 15.55,  0.47,-23.13, 96.39,-5452.25; 35.61,  0.26, -0.06,  1.08, 15.05, -6.60, -5.24, -3.30, 13.33,-13.57,  8.44,-1010.56
Uptime 00:01:15, 28.88, -0.08, -0.08,  0.90, 24.96,-25.99,-46.44, -4.75, -5.32,-19.56, 91.23,-5458.34; 35.66, -0.31, -0.07,  0.73, 25.77, 43.92, 24.22, -4.94,-22.99,-10.09, 14.37,-1007.39
Uptime 00:01:15, 28.93,  0.35,  0.34,  1.12,  9.65, -4.44,-109.84, 16.31, 16.62,-17.61, 88.51,-5472.62; 35.66,  0.34,  0.04,  1.11,-40.09, 53.86, 68.39,  2.17, 17.03,-14.95, 20.60,-998.50
Uptime 00:01:15, 28.98,  0.14,  0.26,  1.18,-34.45, 36.78, -9.87, 12.30,  6.61,-21.50, 91.40,-5473.93; 35.66, -0.06,  0.02,  0.96, 22.61,  1.37, 56.50,  1.28, -3.75,-11.68, 20.44,-990.98
Uptime 00:01:15, 28.93,  0.22, -0.01,  0.96,  5.05, 64.39,-40.19, -0.70, 12.94,-20.44, 97.58,-5479.20; 35.66,  0.24, -0.18,  0.61, 12.40, -7.29,  1.78,-15.42, 20.81,-10.16, 18.68,-990.75
Uptime 00:01:15, 28.98, -0.35,  0.28,  1.21,-10.81, -0.62, 19.76, 12.57,-15.80,-21.16, 95.87,-5476.63; 35.66, -0.14,  0.16,  1.06,  6.52,-84.72,-57.85,  8.74, -7.49, -8.95,  7.67,-998.27
Uptime 00:01:16, 28.88,  0.06,  0.06,  0.98,-44.90, 19.18,-120.07,  3.47,  3.46,-26.47, 96.36,-5492.48; 35.56,  0.10, -0.24,  0.90, 11.94, 24.96,-44.80,-14.91,  6.35, -7.53, 10.61,-1004.18
Uptime 00:01:16, 28.88,  0.22, -0.16,  0.87, 29.29,  5.81,-95.38,-10.39, 14.02,-22.42, 94.89,-5504.88; 35.66, -0.37,  0.09,  1.12, -5.88, -8.57, -3.61,  4.32,-18.26, -8.04,  9.68,-1004.65
Uptime 00:01:16, 28.93,  0.13,  0.36,  1.07,-16.03, 71.47,-84.74, 18.45,  6.58,-23.69,102.18,-5516.15; 35.56, -0.37,  0.28,  1.15, -3.36, 33.86, 43.51, 13.23,-17.30, -8.05, 14.24,-998.87
Uptime 00:01:16, 28.88,  0.32, -0.12,  1.01, -7.07, 21.53,-36.19, -6.21, 17.46,-24.24,102.53,-5520.85; 35.56,  0.29, -0.38,  0.75, -4.57,-23.90, -9.35,-25.37, 19.30, -8.98, 10.53,-1000.08
Uptime 00:01:16, 28.93, -0.02,  0.18,  1.10, 36.36, 51.66, 37.91,  9.29, -1.09,-18.94,107.08,-5515.92; 35.75, -0.75, -0.01,  1.08,-71.27,-22.55,-90.69, -0.61,-34.58,-17.89,  8.13,-1011.87
Uptime 00:01:16, 28.93,  0.17,  0.45,  1.03,-32.48,-26.34,-65.23, 23.37,  8.81,-22.33,101.33,-5524.60; 35.66,  0.08,  0.16,  1.12,  7.91,  1.90,-19.84,  7.93,  3.88,-16.35,  8.14,-1014.51
Uptime 00:01:16, 28.93, -0.20,  0.04,  0.78,-15.74,-22.36,-59.74,  2.74,-14.34,-23.83, 96.74,-5532.37; 35.56, -0.40, -0.20,  0.85, 25.33, 29.60,  2.26,-12.12,-24.74,-13.03, 12.24,-1014.22
Uptime 00:01:16, 28.98,  0.29,  0.19,  0.92,  4.09,-93.89,-134.56, 11.26, 17.04,-22.61, 82.51,-5549.86; 35.66,  0.55,  0.05,  1.17,-39.45, 12.79, 61.20,  2.43, 25.08,-17.75, 13.13,-1006.26
Uptime 00:01:17, 28.98,  0.01,  0.25,  0.95,-25.35, 76.46,-53.95, 14.90,  0.36,-25.16, 90.81,-5557.03; 35.66,  0.05,  0.12,  1.01, -0.98,  2.47, 15.84,  6.60,  2.68,-17.39, 13.13,-1004.15
Uptime 00:01:17, 28.88,  0.28,  0.22,  0.92, -8.75, 25.11,-86.87, 13.07, 16.40,-25.51, 91.87,-5568.33; 35.61,  0.19,  0.02,  1.03, 15.27,-59.84,  2.44,  1.16, 10.73,-15.08,  5.03,-1003.84
Uptime 00:01:17, 29.02,  0.28,  0.08,  0.93, 36.65, 86.80,-57.14,  4.59, 16.47,-20.17,100.93,-5575.87; 35.61, -0.04,  0.14,  1.09,-30.61, 51.61,-13.35,  7.51, -2.07,-18.58, 11.65,-1005.60
Uptime 00:01:17, 29.07,  0.11,  0.25,  1.04,-14.06,  2.45,-87.11, 13.36,  5.99,-21.29, 99.10,-5587.19; 35.61,  0.34,  0.10,  0.89, -0.72, -7.59,-50.97,  6.06, 20.70,-18.18, 10.04,-1012.22
Uptime 00:01:17, 28.88, -0.15,  0.18,  1.08,-22.46, 40.85,-101.74,  9.55, -7.94,-23.53,102.48,-5600.42; 35.66, -0.05, -0.01,  0.91, 18.73, 20.64,-84.32, -0.73, -3.18,-15.45, 12.53,-1023.19
Uptime 00:01:17, 28.93,  0.01,  0.04,  0.87,  7.26, 30.98,-107.89,  2.62,  0.76,-22.06,104.46,-5614.77; 35.61, -0.11,  0.18,  1.02, 17.27, 12.65,-26.49,  9.75, -6.08,-12.69, 14.05,-1026.71
Uptime 00:01:17, 28.98, -0.11,  0.22,  1.16, -0.49, 75.61,-118.15, 10.85, -5.45,-21.47,112.11,-5630.13; 35.71, -0.39,  0.10,  0.87, -1.97, 95.00, 23.02,  5.74,-24.01,-12.57, 26.35,-1023.72
Uptime 00:01:18, 29.02, -0.11, -0.05,  0.89,-25.61, -2.62,-29.81, -2.90, -6.78,-24.36,109.67,-5634.00; 35.71, -0.04, -0.16,  0.88,  4.90,-78.25,-18.05,-10.26, -2.28,-11.90, 15.90,-1026.06
Uptime 00:01:18, 28.88, -0.08, -0.20,  0.82,  1.02,-29.38,-58.29,-13.65, -5.38,-24.01,103.76,-5641.75; 35.71,  0.26,  0.09,  1.02, 15.79,  9.35,-21.73,  5.13, 14.21, -9.51, 16.52,-1028.95
Uptime 00:01:18, 28.93, -0.12,  0.46,  1.19, 12.41, -2.07,-23.25, 21.16, -5.50,-21.53,101.53,-5644.78; 35.71,  0.07,  0.31,  0.93, -2.02,-67.00,-36.22, 18.31,  4.13, -9.21,  7.57,-1033.66
Uptime 00:01:18, 29.07, -0.41,  0.03,  1.17,-21.19, 22.37,-71.28,  1.31,-19.17,-23.77,102.73,-5654.04; 35.61,  0.04, -0.32,  1.01, 10.46, 40.87,-38.95,-17.55,  2.33, -8.04, 12.58,-1038.73
Uptime 00:01:18, 29.02,  0.37,  0.09,  1.63, -4.35,105.69,-83.43,  2.98, 12.63,-23.82,114.72,-5665.56; 35.71, -0.16,  0.09,  1.02,-20.43, 12.87, -4.14,  5.07, -9.10,-10.54, 14.25,-1039.30
Uptime 00:01:18, 28.98, -0.13,  0.56,  1.12,-14.58, -3.43,-83.52, 26.55, -5.93,-24.68,112.10,-5676.41; 35.61, -0.30,  0.33,  1.02, -4.05, 19.72, 23.42, 16.97,-15.64,-10.51, 16.79,-1036.25
Uptime 00:01:18, 29.02, -0.04,  0.10,  1.11,-19.00, 73.85,-65.87,  5.14, -2.06,-26.54,119.46,-5685.11; 35.75,  0.10, -0.24,  0.87, -4.41,-13.44, -6.63,-15.05,  6.37,-11.17, 14.59,-1037.13
Uptime 00:01:18, 28.88, -0.50,  0.18,  1.11, 28.50,-41.31, 22.03,  8.52,-24.10,-22.18,112.25,-5682.22; 35.71, -0.46, -0.09,  0.87,-41.31, -3.73,-48.23, -4.96,-27.64,-16.35, 14.37,-1043.45
Uptime 00:01:19, 29.02,  0.12,  0.16,  1.10,-57.36, 42.51,-89.61,  8.30,  6.43,-28.93,115.33,-5693.96; 35.80,  0.13, -0.17,  1.04, 12.64,-12.43,-29.41, -9.39,  6.96,-14.59, 12.34,-1047.30
Uptime 00:01:19, 29.07, -0.33, -0.21,  0.78,-13.55, -8.30,-80.26,-14.22,-22.07,-30.40,112.38,-5704.64; 35.71, -0.17,  0.09,  0.78, 11.98, 86.18, 29.84,  6.41,-12.45,-12.60, 23.58,-1043.33
Uptime 00:01:19, 29.02,  0.13,  0.08,  1.09, 29.17, 29.46,-123.09,  4.20,  6.67,-25.96,113.78,-5720.76; 35.71, -0.02,  0.25,  0.95, -2.99, 70.91, 84.35, 14.49, -1.15,-12.45, 32.23,-1032.28
Uptime 00:01:19, 29.07, -0.10,  0.22,  0.92,-71.04, 53.58, -7.20, 13.56, -5.71,-34.22,118.45,-5721.70; 35.71, -0.14, -0.26,  0.95, 11.33,-37.21, 21.98,-14.93, -8.10,-11.05, 27.01,-1029.42
Uptime 00:01:19, 29.12, -0.38,  0.22,  0.61, 14.32,-87.28,-56.01, 17.25,-30.17,-31.33,105.31,-5729.15; 35.71,  0.28,  0.26,  1.29, -7.77,  0.94, 13.89, 11.12, 12.02,-11.62, 26.35,-1027.58
Uptime 00:01:19, 28.98, -0.02,  0.29,  0.98,-23.10,-20.74,-51.93, 16.69, -1.37,-33.31,100.59,-5735.90; 35.80,  0.23,  0.17,  1.12, 10.78,-49.65,-30.98,  8.23, 11.41, -9.85, 19.27,-1031.60
Uptime 00:01:19, 29.12, -0.25, -0.28,  1.01, 18.18,-56.74,-79.90,-14.97,-13.41,-30.58, 91.45,-5746.53; 35.71,  0.11, -0.30,  0.84,  3.82, 21.80,-36.08,-19.55,  6.76, -9.55, 21.59,-1036.40
Uptime 00:01:19, 29.07,  0.25,  0.19,  1.15, 49.00, 21.08,-157.92,  9.10, 12.23,-23.54, 92.06,-5767.06; 35.71,  0.46,  0.01,  1.08,-41.98, 12.48, 10.55,  0.42, 22.85,-14.70, 22.29,-1035.03
Uptime 00:01:20, 29.02, -0.05,  0.44,  0.97,-42.34, 28.57,-45.17, 24.36, -2.42,-27.97, 93.90,-5772.93; 35.66, -0.09,  0.09,  1.05,  3.05, 13.22,  8.36,  4.75, -4.68,-13.92, 23.63,-1033.94
Uptime 00:01:20, 28.98,  0.09,  0.03,  0.97,  7.92, 16.02,-41.87,  1.54,  5.57,-26.31, 94.10,-5778.75; 35.75,  0.11, -0.25,  0.73, 32.00,-29.90,-25.94,-18.47,  8.21, -9.65, 18.92,-1037.55
Uptime 00:01:20, 28.93, -0.10,  0.16,  1.03, -1.88, -4.65, -0.50,  8.68, -5.23,-25.85, 91.73,-5778.81; 35.80, -0.00,  0.01,  1.13,-27.82,-108.97,-71.52,  0.55, -0.03,-12.99,  4.66,-1046.85
Uptime 00:01:20, 28.98,  0.30,  0.20,  1.13,-46.71, 56.62,-101.77,  9.86, 14.37,-31.08, 96.82,-5792.04; 35.75,  0.26, -0.09,  1.02, -6.67, 63.95,-21.61, -4.68, 14.25,-13.68, 12.42,-1049.66
Uptime 00:01:20, 29.12, -0.07,  0.13,  0.87,  2.59,-15.73,-101.11,  8.34, -4.46,-29.96, 92.94,-5805.39; 35.66, -0.08, -0.07,  0.72, 27.94, 49.69,  3.58, -5.32, -6.46, -9.89, 18.73,-1049.18
Uptime 00:01:20, 29.07,  0.64,  0.21,  1.24, -3.68,  7.70,-146.32,  8.43, 27.07,-29.66, 91.52,-5824.41; 35.75,  0.02,  0.13,  1.05, 12.93, 68.00, 46.91,  7.30,  1.31, -7.90, 27.00,-1043.08
Uptime 00:01:20, 29.02, -0.15,  0.20,  0.89,-42.42, 16.40,-39.80, 12.83, -9.09,-34.25, 91.97,-5829.62; 35.80, -0.05, -0.18,  0.95, 12.56,-16.17,  5.26,-10.47, -2.92, -6.34, 24.44,-1042.40
Uptime 00:01:21, 28.98,  0.07, -0.03,  0.89,  7.71, 11.98,-58.62, -1.67,  4.32,-32.61, 91.60,-5837.36; 35.75,  0.32,  0.25,  1.12, -8.96,-21.33,-11.16, 11.85, 15.54, -7.14, 20.88,-1043.87
Uptime 00:01:21, 29.07, -0.11,  0.31,  1.08,-32.35,-20.67,-46.62, 15.99, -5.63,-35.76, 87.25,-5843.42; 35.75,  0.21,  0.25,  0.90, 18.98,-51.29,-51.73, 15.11, 12.66, -4.27, 13.67,-1050.59
Uptime 00:01:21, 29.12, -0.18, -0.18,  1.03,-18.67, 34.91,-95.13, -9.94, -9.97,-37.67, 90.25,-5856.07; 35.75,  0.04, -0.24,  0.86,  6.78, 47.69,-49.36,-15.80,  2.61, -3.62, 19.56,-1057.16
Uptime 00:01:21, 29.12,  0.18,  0.05,  1.07, 34.07, 28.56,-154.42,  2.53,  9.47,-32.53, 91.89,-5876.15; 35.71,  0.20,  0.21,  1.22,-34.20, 28.83,-25.56,  9.59,  9.04, -7.71, 22.66,-1060.48
Uptime 00:01:21, 29.07, -0.17,  0.45,  0.91,-18.31, 14.72,-72.74, 25.59, -9.29,-33.70, 92.12,-5885.61; 35.75, -0.35,  0.34,  1.03,  0.69, -9.03, -3.70, 17.30,-17.72, -7.13, 21.42,-1060.96
Uptime 00:01:21, 29.16,  0.27, -0.01,  0.84,-20.38, 90.65,-92.50, -0.72, 17.69,-35.70,101.74,-5897.91; 35.75,  0.29, -0.17,  0.83, 10.15,-37.84,-42.81,-10.68, 18.93, -5.87, 15.68,-1066.66
Uptime 00:01:21, 29.12, -0.43,  0.11,  1.19,  3.13, 12.85,  0.52,  4.95,-19.76,-34.49,101.73,-5897.84; 35.66, -0.32, -0.04,  1.14,-17.40,-59.61,-109.18, -1.92,-15.69, -8.01,  8.08,-1080.85
Uptime 00:01:21, 29.21, -0.16,  0.07,  0.84,-27.21,-16.67,-112.42,  4.56,-10.90,-37.17, 97.79,-5912.46; 35.75,  0.10, -0.39,  0.98, 16.99, -3.13,-56.51,-21.51,  5.42, -6.12,  7.41,-1088.20
Uptime 00:01:22, 29.07,  0.05, -0.01,  0.81, 18.61,  4.80,-102.99, -0.52,  3.42,-34.03, 96.39,-5926.05; 35.75, -0.18,  0.21,  1.06,  5.51,  9.92,-24.10, 10.85, -9.55, -5.06,  8.74,-1091.38
Uptime 00:01:22, 29.07, -0.01,  0.37,  0.91,-13.80, 68.46,-76.59, 22.42, -0.85,-34.66,103.20,-5936.01; 35.75, -0.20,  0.36,  1.05,  2.47, 29.02, 21.37, 18.41,-10.09, -4.28, 12.46,-1088.60
Uptime 00:01:22, 29.12,  0.39, -0.06,  1.12,  6.13,  8.56,-75.46, -3.09, 19.41,-33.23,101.86,-5946.04; 35.75, -0.03, -0.25,  0.92, -7.04,-28.39,-13.49,-15.43, -1.99, -5.42,  8.55,-1090.39
Uptime 00:01:22, 29.16, -0.15,  0.09,  1.10, 18.68, 16.53,  5.96,  4.53, -7.48,-30.09,102.08,-5945.27; 35.75, -0.55,  0.01,  1.24,-73.80,-52.94,-70.58,  0.38,-23.76,-14.71,  2.11,-1099.57
Uptime 00:01:22, 29.12,  0.41,  0.34,  1.20,-57.51, -1.60,-115.40, 15.09, 18.30,-36.57, 99.47,-5960.39; 35.75,  0.36, -0.01,  0.98,  0.18,  2.29,-44.61, -0.29, 20.43,-14.39,  1.96,-1105.41
Uptime 00:01:22, 29.07,  0.15,  0.08,  0.85,-12.17, 21.53,-111.13,  5.04,  9.93,-37.33,100.09,-5975.17; 35.75, -0.10, -0.01,  0.72, 25.51, 61.40,  7.17, -0.84, -7.82,-10.80, 10.08,-1104.46
Uptime 00:01:22, 29.12,  0.03,  0.10,  1.16, -5.65, 46.33,-122.56,  4.86,  1.31,-37.20,103.96,-5991.10; 35.75, -0.11,  0.18,  1.04,  0.81, 51.64, 50.53,  9.71, -5.77,-10.29, 16.57,-1097.89
Uptime 00:01:22, 29.07,  0.34,  0.04,  0.91,-41.22,-21.08,-26.07,  2.55, 20.31,-41.66, 98.79,-5994.49; 35.71,  0.12, -0.27,  0.86,  2.18,-42.84, 13.74,-17.37,  7.37,-10.15, 10.63,-1096.11
Uptime 00:01:23, 29.12, -0.18, -0.09,  0.88, 21.31, 54.31,-11.35, -5.41,-11.71,-38.16,104.13,-5996.00; 35.75,  0.20,  0.13,  1.24,-23.24, 26.79,  2.99,  5.79,  9.32,-12.86, 13.73,-1095.71
Uptime 00:01:23, 29.16,  0.03,  0.55,  0.97,-34.81,-50.10,-63.43, 29.65,  1.35,-41.27, 95.59,-6004.31; 35.75,  0.33,  0.37,  1.03, -3.89,-54.31,-35.76, 18.69, 16.93,-12.73,  6.14,-1100.39
Uptime 00:01:23, 29.21,  0.01, -0.24,  1.03, 12.74,  9.56,-81.89,-13.10,  0.60,-39.08, 94.88,-6014.95; 35.66, -0.01, -0.34,  0.73, 10.82, 74.67, -1.42,-25.04, -0.88,-11.59, 15.55,-1100.58
Uptime 00:01:23, 29.07,  0.23,  0.13,  1.16, 18.24, 21.99,-129.06,  6.32, 11.26,-35.82, 95.60,-6031.99; 35.66,  0.39, -0.03,  1.10,-25.36, 63.89, 77.89, -1.51, 19.61,-14.67, 23.11,-1090.30
Uptime 00:01:23, 29.02, -0.17,  0.46,  1.06,-64.55, 13.73,  6.66, 23.16, -8.55,-42.86, 95.61,-6031.12; 35.75, -0.04, -0.05,  0.99, -6.55,-14.04, 30.82, -3.00, -2.08,-15.27, 20.90,-1086.29
