Time,A_Temp,A_AccX,A_AccY,A_AccZ,A_GyroX,A_GyroY,A_GyroZ,A_AccAngX,A_AccAngY,A_AngleX,A_AngleY,A_AngleZ;B_Temp,B_AccX,B_AccY,B_AccZ,B_GyroX,B_GyroY,B_GyroZ,B_AccAngX,B_AccAngY,B_AngleX,B_AngleY,B_AngleZ
Uptime 00:00:00, 23.14, -0.16,  0.21,  1.08, 15.60, -3.24, 48.87, 10.69, -8.35, 32.66, -6.56,103.75; 29.73, -0.09,  0.27,  0.97,-19.23, 65.67, 30.18, 15.81, -4.91,-20.83, 72.30, 33.86
Uptime 00:00:00, 23.19,  0.03, -0.20,  0.98, 16.02, 13.34, 32.01,-11.42,  1.85, 33.77, -4.81,107.81; 29.82, -0.03, -0.20,  0.88,-31.98, -2.76, 27.52,-12.71, -2.15,-24.64, 70.56, 37.35
Uptime 00:00:00, 23.14, -0.04,  0.13,  1.06,  0.10, 57.80, 32.73,  6.90, -2.15, 33.25,  2.64,112.04; 29.73, -0.08, -0.09,  1.04,  2.15, 12.77, 30.51, -4.83, -4.18,-23.97, 70.84, 41.29
Uptime 00:00:00, 23.28, -0.29, -0.03,  1.08, -8.77,-28.85,100.49, -1.68,-14.88, 31.45, -0.74,124.90; 29.82,  0.16, -0.07,  0.84, 24.51,-10.67, 45.95, -4.60, 11.00,-20.51, 67.87, 47.17
Uptime 00:00:00, 23.24, -0.33,  0.08,  1.12, 14.54, 21.07,109.89,  4.01,-16.17, 32.73,  2.24,138.97; 29.87, -0.32, -0.22,  0.99,-10.62, -1.22, 18.64,-12.17,-17.51,-21.68, 66.71, 49.56
Uptime 00:00:00, 23.19, -0.28, -0.14,  1.08,  3.87,-47.17,124.14, -7.27,-14.36, 32.42, -3.48,154.98; 29.96, -0.15,  0.07,  0.89,-15.52,-27.45, 61.90,  4.15, -9.51,-23.12, 62.09, 57.54
Uptime 00:00:00, 23.19, -0.09, -0.12,  1.06, 12.15,-17.01,128.70, -6.22, -5.07, 33.15, -5.42,171.32; 30.06, -0.05, -0.03,  0.93,-12.49,  0.78, 71.87, -1.91, -3.15,-24.25, 61.01, 66.67
Uptime 00:00:00, 23.19, -0.08,  0.04,  0.93,  1.37, 15.51, 88.33,  2.20, -5.15, 32.71, -3.27,182.63; 30.06, -0.16, -0.03,  0.97, -2.04,  6.69, 48.02, -1.62, -9.58,-24.06, 60.82, 72.82
Uptime 00:00:01, 23.19, -0.23,  0.12,  1.04, 16.08, 24.02, 84.99,  6.20,-12.19, 34.23,  0.10,193.68; 30.15, -0.12,  0.02,  1.04,-21.15, 11.64, 51.34,  1.29, -6.87,-26.24, 61.22, 79.49
Uptime 00:00:01, 23.24, -0.41, -0.13,  1.16,  2.18, 24.84,115.65, -6.11,-19.13, 33.69,  3.57,208.37; 30.15, -0.18, -0.11,  1.02,-36.80,  0.89, 46.28, -5.94, -9.78,-30.42, 60.31, 85.37
Uptime 00:00:01, 23.38, -0.08, -0.09,  1.17, 25.63,-15.60,126.08, -4.48, -3.88, 36.12,  1.64,224.38; 30.15, -0.25, -0.10,  1.16, -5.67,  3.02, 59.66, -4.59,-12.21,-30.61, 59.72, 92.95
Uptime 00:00:01, 23.33, -0.24,  0.11,  1.06,  0.91,-33.65, 62.55,  5.97,-12.86, 35.63, -2.42,232.51; 30.25, -0.29, -0.01,  0.91,  6.97,-29.60, 47.11, -0.71,-17.91,-29.12, 55.11, 99.07
Uptime 00:00:01, 23.19, -0.28,  0.13,  0.94,  5.23, 46.26, 98.47,  7.64,-16.29, 35.73,  3.75,245.11; 30.20, -0.04,  0.10,  1.23,-53.76,-12.40, 94.33,  4.67, -1.70,-35.19, 52.49,111.14
Uptime 00:00:01, 23.33, -0.44, -0.08,  1.21,  4.66, 33.15,158.79, -3.65,-19.98, 35.53,  8.27,265.60; 30.29, -0.57, -0.23,  1.03,-35.17, 81.06, 97.83,-11.29,-28.27,-39.16, 62.25,123.76
Uptime 00:00:01, 23.28,  0.04, -0.14,  0.85,-25.46, 20.81,121.22, -9.35,  2.54, 31.46, 10.64,280.99; 30.34,  0.13, -0.08,  0.98,-49.36, -8.49, 99.32, -4.35,  7.84,-44.60, 59.79,136.38
Uptime 00:00:01, 23.33, -0.54, -0.04,  1.32,-17.06, 53.45,132.08, -1.42,-22.19, 28.66, 17.58,297.90; 30.48, -0.27, -0.25,  0.83,  2.39, 47.71, 94.48,-15.82,-17.14,-43.73, 64.93,148.47
Uptime 00:00:02, 23.33, -0.03, -0.06,  0.97,-38.86, 48.26,125.17, -3.47, -1.95, 23.07, 23.41,314.17; 30.48, -0.05,  0.11,  0.80,-59.99, 26.40, 46.10,  7.45, -3.75,-50.35, 67.07,154.46
Uptime 00:00:02, 23.28, -0.90, -0.34,  0.89,-34.43, 23.30, 95.95,-15.25,-43.24, 18.02, 26.71,326.36; 30.48, -0.69, -0.36,  0.94,-23.23, 14.03, 43.78,-17.34,-34.69,-52.58, 68.16,160.02
Uptime 00:00:02, 23.24, -0.35,  0.23,  1.03, -0.30,  0.11, 52.81, 11.75,-18.50, 17.86, 26.56,333.06; 30.48, -0.19,  0.05,  0.98, 20.01, -9.65, 43.98,  2.74,-10.92,-48.98, 65.82,165.61
Uptime 00:00:02, 23.33, -0.18, -0.48,  0.94,-43.63, -3.63,102.23,-26.40, -9.59, 11.41, 25.76,346.35; 30.48,  0.30, -0.06,  0.47,-29.96,  6.80, 20.22, -5.93, 32.57,-51.94, 64.72,168.24
Uptime 00:00:02, 23.33,  0.05, -0.45,  0.98, 37.58, 12.72, 37.51,-24.44,  2.68, 15.41, 26.78,351.16; 30.44,  0.06, -0.15,  0.93,-59.24, 59.44, 74.45, -9.39,  3.66,-58.52, 70.81,177.77
Uptime 00:00:02, 23.38, -0.90,  0.43,  1.01, 33.58,-19.21, 28.81, 17.84,-39.23, 19.64, 24.64,354.81; 30.53, -0.35, -0.27,  1.33,-18.68,-70.53, 63.25,-11.11,-14.67,-59.89, 60.90,185.80
Uptime 00:00:02, 23.33, -0.63,  0.21,  1.21,-64.47,-23.17, 87.40,  8.72,-27.08, 11.21, 21.74,366.18; 30.53, -0.76,  0.33,  0.93,-20.39,-19.97, 61.15, 15.24,-37.53,-60.99, 57.89,193.75
Uptime 00:00:02, 23.38, -0.67, -0.18,  0.84,-35.32, 22.79, 68.04, -9.45,-38.07,  6.36, 24.93,374.89; 30.53, -0.52, -0.20,  0.81,-16.92, 54.95,-19.88,-12.08,-31.81,-62.13, 64.26,191.21
Uptime 00:00:03, 23.47, -0.61, -0.11,  1.02,  2.10, 22.26,  9.49, -5.15,-30.66,  6.40, 27.88,376.12; 30.62, -0.46, -0.04,  0.92, -7.18,-26.56, 22.18, -2.03,-26.53,-61.85, 60.12,194.09
Uptime 00:00:03, 23.42, -0.72,  0.01,  0.78, -4.07,-37.66, -4.78,  0.71,-42.65,  5.78, 23.48,375.51; 30.62, -0.27, -0.13,  1.06, 22.70,-30.44,  7.90, -6.70,-14.24,-57.92, 55.42,195.09
Uptime 00:00:03, 23.47, -0.16, -0.14,  0.77, -0.17,-68.47, -9.94, -9.86,-11.23,  5.45, 14.72,374.25; 30.62,  0.00,  0.26,  0.84,-23.06,-95.22,-10.98, 17.00,  0.09,-59.29, 42.46,193.70
Uptime 00:00:03, 23.42, -0.41, -0.06,  1.29,-13.06, 99.25,-32.20, -2.50,-17.50,  3.62, 27.42,370.07; 30.62,  0.04,  0.02,  1.11, -1.04, 55.80,-46.54,  1.19,  2.11,-58.21, 48.68,187.65
Uptime 00:00:03, 23.28, -0.29,  0.06,  0.95,  9.38,  6.43,-58.87,  3.34,-16.90,  4.79, 28.01,362.53; 30.72, -0.05,  0.04,  0.95,-13.99,-52.14,-55.23,  2.19, -2.80,-58.76, 41.22,180.58
Uptime 00:00:03, 23.33, -0.34,  0.03,  0.96, 45.86, -0.23,-31.65,  1.68,-19.81, 10.44, 27.82,358.51; 30.72, -0.09,  0.11,  0.95,  6.18,-19.52,-45.69,  6.26, -5.13,-56.69, 38.07,174.78
Uptime 00:00:03, 23.28, -0.28,  0.18,  1.10, 54.95,-45.82,-34.37,  8.98,-14.12, 17.36, 21.76,354.08; 30.76, -0.03, -0.00,  1.18,-16.34, -7.05,-23.49, -0.22, -1.57,-57.63, 36.44,171.75
Uptime 00:00:03, 23.33, -0.32,  0.02,  0.86, 22.08,-40.59,-51.16,  0.95,-20.23, 19.80, 16.63,347.53; 30.72,  0.06,  0.04,  0.69,  1.05,-51.69,-34.53,  3.22,  4.73,-56.28, 29.14,167.33
Uptime 00:00:04, 23.33,  0.08, -0.01,  1.10, 28.80,  2.58,-14.20, -0.74,  4.15, 23.00, 16.54,345.71; 30.76,  0.07, -0.09,  1.02, 63.72,-21.49,-29.95, -4.75,  3.95,-47.26, 25.78,163.49
Uptime 00:00:04, 23.38, -0.02,  0.11,  1.02, 36.70, 71.10, 23.59,  6.38, -1.20, 27.31, 25.22,348.75; 30.72, -0.24,  0.18,  1.11, 24.80, 59.89,-32.92,  9.26,-12.06,-42.99, 33.08,159.25
Uptime 00:00:04, 23.42, -0.42,  0.14,  0.99,-28.17,-46.66,  6.61,  7.41,-22.61, 23.40, 19.36,349.59; 30.86,  0.17, -0.02,  1.01,-23.23,-13.33,-80.91, -1.00,  9.47,-45.04, 30.57,148.97
Uptime 00:00:04, 23.47, -0.47, -0.10,  1.02, 28.31, -6.85,-44.35, -4.98,-24.76, 26.39, 18.61,343.92; 30.86, -0.20, -0.40,  0.95, 20.51, -9.01,-73.73,-22.50,-10.78,-42.02, 29.04,139.53
Uptime 00:00:04, 23.42, -0.32,  0.18,  0.81,  8.53,-53.72, -1.79, 11.76,-20.83, 27.18, 11.81,343.68; 30.95, -0.15, -0.03,  1.23,  1.95,-72.33, -6.91, -1.35, -7.00,-40.95, 19.39,138.64
Uptime 00:00:04, 23.38,  0.11, -0.00,  1.03,-10.19, 43.44, -2.92, -0.27,  6.04, 25.35, 16.90,343.31; 30.86, -0.20, -0.22,  1.02,-24.46, 71.80, 10.68,-11.73,-10.68,-43.44, 28.22,140.00
Uptime 00:00:04, 23.42, -0.20,  0.03,  1.11,  4.19,-21.17, -7.05,  1.78,-10.29, 25.41, 14.09,342.40; 30.95,  0.01, -0.43,  1.14,  7.84,-57.95,  3.95,-20.87,  0.49,-42.00, 20.32,140.51
Uptime 00:00:05, 23.56,  0.02,  0.16,  0.89, 14.15, 30.28, 11.66, 10.05,  1.06, 26.88, 17.59,343.89; 31.05,  0.09, -0.19,  0.98, 33.37,-16.88,-61.61,-10.75,  5.02,-37.19, 17.69,132.63
Uptime 00:00:05, 23.38, -0.43,  0.19,  0.80,-10.42,-14.75, 48.81, 12.04,-27.84, 25.28, 15.94,350.14; 31.09, -0.05, -0.03,  0.94,-27.35,-59.91,-75.61, -1.94, -3.16,-39.91,  9.89,122.95
Uptime 00:00:05, 23.42, -0.21, -0.15,  1.12,  7.14, 34.37,-20.18, -7.60,-10.48, 25.52, 20.18,347.54; 31.00,  0.03, -0.33,  1.11, -3.03, 27.22,-64.27,-16.75,  1.42,-39.83, 13.10,114.66
Uptime 00:00:05, 23.47, -0.39,  0.02,  0.91,  5.12,-37.88, 31.04,  1.35,-23.30, 25.68, 15.49,351.51; 31.00, -0.09, -0.28,  0.99, 42.41,-42.69,-19.21,-15.66, -5.23,-34.03,  7.59,112.20
Uptime 00:00:05, 23.42, -0.15,  0.40,  0.89, 10.02, -1.97,-38.49, 23.83, -8.48, 26.90, 15.10,346.58; 31.00, -0.04,  0.22,  1.03, 12.86,  8.26, 10.04, 12.05, -2.10,-31.49,  8.52,113.48
Uptime 00:00:05, 23.47,  0.02, -0.24,  1.29, 17.08, 12.49,-12.44,-10.62,  1.08, 28.48, 16.48,344.85; 31.00, -0.19, -0.30,  1.12,-44.45,  1.36,-14.01,-14.60, -9.32,-37.21,  8.72,111.54
Uptime 00:00:05, 23.42, -0.09, -0.06,  1.01, 24.76, 42.06,-39.36, -3.11, -5.07, 31.00, 21.61,339.74; 31.09, -0.14, -0.28,  1.10, 40.50,-11.14, -9.58,-14.20, -7.01,-31.59,  7.27,110.29
Uptime 00:00:05, 23.47, -0.15,  0.31,  0.76,-29.55, 12.17, 39.59, 21.99,-10.15, 27.05, 22.93,344.88; 31.09, -0.16, -0.03,  1.07, 51.96, -3.11,-54.98, -1.62, -8.35,-24.37,  6.89,103.14
Uptime 00:00:06, 23.42, -0.56, -0.10,  1.05, 19.92,-29.50,-40.09, -5.03,-28.22, 29.01, 19.19,339.55; 31.05, -0.06, -0.06,  0.98,-15.46,-45.95,-93.24, -3.33, -3.61,-25.96,  0.84, 90.74
Uptime 00:00:06, 23.47, -0.25, -0.14,  1.00, 10.74,-23.16, 43.42, -7.75,-14.08, 29.64, 16.14,345.19; 31.09, -0.07, -0.41,  0.92, 35.86,-43.10,-49.82,-24.13, -4.01,-21.36, -4.59, 84.27
Uptime 00:00:06, 23.52, -0.23,  0.38,  1.19,-20.79,  2.09, 10.40, 17.35,-10.54, 26.71, 16.30,346.57; 31.14, -0.13,  0.01,  0.78, 23.54, 13.71, 19.67,  0.81, -9.78,-17.87, -2.53, 86.86
Uptime 00:00:06, 23.47,  0.17,  0.15,  1.01,-24.28,  0.34,-18.95,  8.11,  9.35, 23.22, 15.83,344.08; 31.24, -0.00,  0.10,  0.80,-63.61, 21.13, 46.42,  7.44, -0.19,-25.53,  0.24, 92.94
Uptime 00:00:06, 23.47, -0.30, -0.12,  1.13, 14.85, 34.29, 13.62, -5.91,-14.96, 24.53, 20.18,345.85; 31.14, -0.12, -0.67,  1.12, 12.04, -3.80,  1.37,-30.65, -5.14,-24.10, -0.15, 93.12
Uptime 00:00:06, 23.52, -0.04,  0.40,  0.97, -1.29, -4.52, 53.48, 22.50, -2.30, 24.32, 19.24,352.91; 31.24, -0.02,  0.17,  1.23, -1.61,-88.30,-33.04,  8.08, -0.86,-23.66,-11.55, 88.76
Uptime 00:00:06, 23.47, -0.42,  0.20,  0.94,  4.79,-12.33, 27.04, 11.04,-23.78, 24.66, 17.76,356.43; 31.14,  0.17,  0.14,  1.01,-37.91,-24.04,-82.53,  7.97,  9.63,-27.86,-14.58, 78.03
Uptime 00:00:06, 23.42, -0.38, -0.19,  1.27, 42.74,-17.28, 55.27, -8.35,-16.45, 29.49, 15.51,363.67; 31.19, -0.03, -0.72,  1.18, 11.98,-10.06,  3.84,-31.24, -1.38,-26.39,-15.55, 78.53
Uptime 00:00:07, 23.47, -0.32,  0.36,  0.84,-20.19, 26.67, 39.79, 21.70,-19.03, 26.72, 19.03,368.92; 31.28, -0.03,  0.14,  1.11, 13.08, 15.04, 39.89,  7.22, -1.38,-24.03,-13.27, 83.80
Uptime 00:00:07, 23.42,  0.10,  0.12,  1.09, 14.28, 25.47,-40.57,  6.36,  5.19, 28.14, 21.79,363.65; 31.19, -0.01,  0.04,  1.01,-66.65, 37.45, 39.40,  2.05, -0.50,-32.00, -8.22, 88.92
Uptime 00:00:07, 23.56, -0.34, -0.30,  1.20,  6.08, 32.47, 31.43,-13.73,-15.52, 28.07, 25.81,367.73; 31.19, -0.29, -0.67,  1.05,  7.05,-20.55,-10.08,-31.48,-13.01,-31.09,-10.41, 87.61
Uptime 00:00:07, 23.52,  0.06,  0.41,  1.24,  9.24,-16.72, 80.75, 18.13,  2.46, 29.08, 23.06,378.47; 31.28,  0.18, -0.10,  0.83, 10.70,-69.16,-24.80, -6.83, 11.88,-29.21,-19.46, 84.31
Uptime 00:00:07, 23.56,  0.12,  0.08,  1.02, -6.37, 12.99, 44.49,  4.61,  6.52, 27.78, 24.13,384.26; 31.19,  0.08,  0.20,  1.05,-33.44,  3.22,-60.25, 11.00,  4.04,-32.67,-18.74, 76.48
Uptime 00:00:07, 23.52, -0.39, -0.17,  1.19,  5.18, 35.77, 13.14, -7.72,-18.04, 27.73, 28.56,385.96; 31.28, -0.09, -0.47,  1.04,-16.52,-14.88,-38.19,-24.18, -4.43,-34.60,-20.17, 71.52
Uptime 00:00:07, 23.52, -0.10,  0.11,  1.10,  1.38,-44.30,  2.88,  5.47, -5.18, 27.46, 22.32,386.35; 31.24, -0.24, -0.12,  1.05, -4.30,-30.93,-13.55, -6.38,-12.94,-34.60,-23.54, 69.71
Uptime 00:00:08, 23.56,  0.30,  0.13,  1.08,-18.86,-28.66,-58.17,  6.73, 15.52, 24.65, 17.91,378.79; 31.24,  0.22,  0.06,  0.90,-54.39,  0.11, 46.36,  3.77, 13.79,-40.76,-23.33, 75.74
Uptime 00:00:08, 23.52,  0.02, -0.31,  1.15, 25.06, 67.96, -9.34,-15.14,  1.10, 27.09, 26.32,377.55; 31.24,  0.10, -0.84,  1.12, 10.83, 17.10,-11.36,-36.87,  4.13,-39.28,-20.73, 74.24
Uptime 00:00:08, 23.52,  0.07,  0.30,  1.05, 12.19, 14.83,  7.34, 15.86,  3.78, 28.42, 27.61,378.51; 31.24,  0.14, -0.00,  1.11, 23.89,-22.79,-53.62, -0.12,  7.12,-35.45,-23.36, 67.27
Uptime 00:00:08, 23.52, -0.07,  0.31,  0.85,  6.33, 34.58, 87.74, 19.68, -4.41, 29.05, 31.55,389.91; 31.24, -0.05,  0.19,  1.03,-44.80,-29.51,-116.30, 10.24, -2.78,-40.25,-26.60, 52.15
Uptime 00:00:08, 23.47, -0.21, -0.26,  1.25, 22.60,-44.06,  5.80,-11.80, -9.35, 31.16, 25.41,390.68; 31.24,  0.02, -0.69,  1.10,  7.75,-14.50,-45.47,-32.17,  1.01,-39.08,-27.97, 46.15
Uptime 00:00:08, 23.52, -0.30,  0.23,  1.03,  6.57, 44.18, 49.33, 12.22,-15.80, 31.62, 30.84,397.09; 31.33, -0.18,  0.10,  1.16,  5.93, 28.23,  4.71,  4.74, -8.84,-37.45,-23.63, 46.76
Uptime 00:00:08, 23.56, -0.30,  0.28,  0.81, -5.17,-11.97, 11.71, 17.97,-19.22, 30.68, 29.07,398.62; 31.33, -0.30,  0.11,  0.69,-80.95,-24.35, 74.65,  8.00,-23.43,-46.93,-25.82, 56.54
Uptime 00:00:08, 23.42,  0.25, -0.31,  1.27, 32.62, 40.11, 40.46,-13.40, 10.75, 34.02, 33.47,403.96; 31.28,  0.03, -0.74,  1.07,-13.47, 30.84, 13.60,-34.65,  1.18,-48.43,-21.34, 58.33
Uptime 00:00:09, 23.52, -0.21,  0.27,  1.02, -5.20, 10.95, 49.69, 14.69,-11.01, 32.97, 34.42,410.47; 31.38,  0.02, -0.06,  1.01,  5.90,-50.65, -7.62, -3.46,  1.37,-46.77,-27.44, 57.34
Uptime 00:00:09, 23.61, -0.38,  0.09,  1.03,  3.87, -9.95, 58.03,  4.63,-20.38, 32.89, 32.87,418.02; 31.28, -0.07, -0.06,  0.91,-41.17,-43.14,-76.53, -3.51, -4.09,-51.15,-32.30, 47.39
Uptime 00:00:09, 23.61, -0.34, -0.19,  1.23,  9.09,-43.74, 65.72, -8.50,-15.31, 33.25, 26.82,426.76; 31.33,  0.13, -0.54,  1.03, 44.70,-28.03, 22.35,-27.36,  6.19,-44.85,-35.44, 50.36
Uptime 00:00:09, 23.61, -0.39,  0.37,  0.99,-19.98, 16.21, 27.66, 19.16,-20.54, 30.42, 28.76,430.36; 31.47, -0.27, -0.11,  0.85, 26.57, -6.15, 71.11, -6.96,-17.57,-40.71,-35.16, 59.60
Uptime 00:00:09, 23.61,  0.20, -0.14,  1.22, 16.65, -6.06, 46.26, -6.53,  9.45, 31.82, 27.22,436.42; 31.28, -0.02, -0.35,  0.93,-95.87,  5.24, 94.76,-20.57, -0.97,-52.61,-33.76, 72.02
Uptime 00:00:09, 23.56, -0.19,  0.03,  1.13,-26.92, 36.05, 15.01,  1.47, -9.36, 27.70, 31.56,438.41; 31.38, -0.15, -0.51,  1.17, 25.77,-20.93, 37.23,-23.51, -6.65,-48.67,-35.68, 76.97
Uptime 00:00:09, 23.52,  0.20,  0.45,  0.65, -0.95,  2.12, 58.21, 33.55, 14.33, 27.70, 30.91,445.98; 31.42,  0.40,  0.04,  0.56, 68.30,-49.05, -8.22,  3.67, 35.11,-38.92,-41.92, 75.90
Uptime 00:00:09, 23.56, -0.54, -0.24,  1.33, 30.28, 19.74, 23.11, -9.34,-21.63, 30.88, 33.28,449.03; 31.42, -0.25, -0.71,  1.46,-40.07,-51.49,-60.01,-25.70, -8.66,-43.84,-47.57, 67.98
Uptime 00:00:10, 23.61, -0.07, -0.02,  0.72,-22.05, -6.08, 34.38, -1.23, -5.21, 27.40, 31.94,453.53; 31.38,  0.13, -0.14,  0.80,  8.59,  1.27, 16.47, -9.57,  9.07,-42.05,-46.64, 70.14
Uptime 00:00:10, 23.56,  0.15, -0.00,  1.12, 31.63, -9.83, 44.27, -0.17,  7.84, 30.91, 29.88,459.33; 31.52,  0.20, -0.32,  1.09, 31.83,  6.95, -6.78,-16.02,  9.72,-37.45,-45.01, 69.25
Uptime 00:00:10, 23.56, -0.03,  0.09,  0.94, -0.05,102.63, 59.30,  5.20, -1.88, 30.39, 42.60,467.16; 31.52, -0.17, -0.08,  0.70, 37.46, 68.02,-22.07, -6.56,-13.61,-31.98,-35.04, 66.33
Uptime 00:00:10, 23.61, -0.18,  0.23,  0.85, 16.92,-37.51, 29.75, 15.00,-11.77, 32.24, 37.20,471.03; 31.52, -0.03, -0.17,  0.91,-61.67,-21.75, 28.42,-10.62, -1.68,-39.41,-37.07, 70.03
Uptime 00:00:10, 23.52, -0.41, -0.34,  1.43, 23.47, 31.71, 50.58,-12.95,-15.63, 34.33, 40.81,477.60; 31.61, -0.41, -0.76,  1.15,-40.48,  8.35, 14.15,-31.68,-16.71,-44.42,-34.93, 71.87
Uptime 00:00:10, 23.52, -0.31,  0.12,  1.08,-13.08,-44.18, 34.81,  6.27,-15.84, 32.06, 34.55,482.23; 31.47, -0.10, -0.19,  1.06, -8.85,-47.69, 49.93,-10.25, -5.56,-44.89,-40.34, 78.51
Uptime 00:00:10, 23.56, -0.19,  0.13,  0.91,  7.55,  0.98, 81.46,  8.14,-11.55, 32.54, 34.22,492.82; 31.47, -0.11,  0.11,  0.99,  5.99, -5.28, 44.04,  6.50, -6.14,-43.09,-40.08, 84.23
Uptime 00:00:11, 23.61, -0.20, -0.12,  1.06, 13.06,  9.33, 94.59, -6.17,-10.79, 33.43, 34.94,505.12; 31.66,  0.00, -0.42,  1.09, -8.07, -9.43,  4.50,-21.31,  0.11,-43.69,-40.49, 84.82
Uptime 00:00:11, 23.56, -0.31, -0.04,  0.92, 12.74, 50.23, 69.24, -2.26,-18.50, 34.38, 41.16,514.33; 31.47, -0.26, -0.07,  1.05, -7.04, 23.73, 21.54, -3.74,-13.82,-43.81,-36.31, 87.68
Uptime 00:00:11, 23.61, -0.21,  0.24,  0.97, 19.09,-13.63, 97.77, 13.66,-12.05, 36.40, 38.84,527.04; 31.56, -0.21, -0.04,  0.78, 20.83, -1.94, 24.42, -2.85,-14.87,-40.33,-35.53, 90.86
Uptime 00:00:11, 23.56, -0.52,  0.02,  1.01, 40.19,-18.17, 76.88,  1.01,-27.34, 41.17, 36.13,537.73; 31.52, -0.37,  0.12,  0.88, 39.57,-14.56, 15.32,  7.31,-22.46,-33.99,-36.35, 92.99
Uptime 00:00:11, 23.71, -0.15,  0.31,  0.92, -3.20,-17.56, 41.20, 18.47, -8.98, 40.30, 33.34,543.12; 31.56, -0.62,  0.11,  0.85,-57.49, -9.22, 67.95,  5.84,-35.58,-40.57,-36.10,101.89
Uptime 00:00:11, 23.66, -0.33,  0.01,  1.16,-11.18, 22.63, 64.81,  0.40,-16.07, 38.08, 35.87,551.55; 31.71,  0.20, -0.10,  1.08,-38.08, -1.31,100.74, -4.96, 10.17,-44.71,-35.75,114.99
Uptime 00:00:11, 23.61, -0.05,  0.03,  1.23,-14.08, -6.55, 63.72,  1.21, -2.21, 35.52, 34.35,559.96; 31.61, -0.13, -0.42,  0.79, -0.20,-35.95, 56.12,-27.68, -8.30,-44.40,-39.52,122.39
Uptime 00:00:11, 23.66, -0.20,  0.55,  1.14,  4.91, -3.92,121.25, 25.46, -8.85, 35.95, 33.34,575.85; 31.71, -0.18,  0.24,  1.05,-21.29,-63.83,-12.57, 12.88, -9.50,-45.99,-46.73,120.75
Uptime 00:00:12, 23.66, -0.30, -0.19,  1.06,  3.20, 14.89, 40.61, -9.71,-15.42, 35.45, 34.89,581.16; 31.61, -0.02, -0.23,  0.96, -9.90, 24.17, 12.13,-13.64, -1.35,-46.61,-42.67,122.34
Uptime 00:00:12, 23.61, -0.37,  0.10,  1.09, 26.56,-15.98, 48.87,  4.77,-18.56, 38.27, 32.50,587.62; 31.61, -0.07, -0.15,  1.06, 38.18, -9.86,  7.61, -7.91, -3.57,-40.90,-43.02,123.34
Uptime 00:00:12, 23.56, -0.05,  0.41,  0.62,  1.69,-21.86, -1.89, 33.30, -3.79, 38.38, 29.14,587.37; 31.47, -0.01,  0.42,  1.15,-25.29,-14.23, 50.53, 19.93, -0.39,-42.90,-43.96,129.91
Uptime 00:00:12, 23.61,  0.18, -0.48,  1.19, 34.30, 60.14, 33.75,-21.84,  8.15, 41.58, 36.11,591.79; 31.71,  0.15, -0.64,  1.11,-20.91, 23.33,  1.02,-29.76,  6.70,-45.32,-40.22,130.04
Uptime 00:00:12, 23.66,  0.02,  0.15,  0.93,-16.60, 27.31, -6.28,  9.49,  1.09, 38.78, 38.93,590.96; 31.66,  0.08, -0.09,  0.96, 29.03,  2.72, -7.93, -5.05,  4.54,-40.73,-39.15,128.99
Uptime 00:00:12, 23.61, -0.12,  0.38,  0.95,  2.83, 48.79, 29.65, 21.86, -6.80, 38.80, 44.50,594.81; 31.75, -0.33,  0.23,  1.01,-21.33,-17.60,-73.93, 12.39,-17.56,-42.39,-40.26,119.38
Uptime 00:00:12, 23.66, -0.14, -0.40,  1.26, 31.00,-55.31,-19.60,-17.52, -6.01, 41.62, 36.69,592.26; 31.75,  0.27, -0.61,  1.07,-20.14,-72.96,-40.04,-29.09, 12.53,-44.69,-49.00,114.17
Uptime 00:00:13, 23.61, -0.31,  0.38,  0.97,  3.47, 63.89,  9.89, 20.54,-16.33, 41.65, 44.61,593.58; 31.75, -0.33,  0.15,  1.01, 39.34, 56.03,-37.93,  7.87,-17.99,-38.51,-40.36,109.13
Uptime 00:00:13, 23.66, -0.31,  0.11,  0.86, 28.05,-90.41, -4.66,  6.92,-19.93, 44.53, 32.60,592.97; 31.75, -0.08,  0.42,  1.27,-40.95,-71.71, 28.82, 18.38, -3.63,-42.59,-48.62,112.87
Uptime 00:00:13, 23.66,  0.09, -0.15,  1.19, 11.66, 63.15, 27.97, -7.34,  4.22, 45.00, 40.03,596.66; 31.75, -0.06, -0.46,  1.06,  9.37, 42.98,-11.49,-23.28, -2.81,-40.99,-42.03,111.36
Uptime 00:00:13, 23.66, -0.16,  0.34,  0.85,  4.74, 28.66, 39.22, 21.27, -9.93, 45.13, 43.08,601.76; 31.75, -0.02,  0.15,  1.01, 18.65,-58.67,-28.72,  8.14, -1.02,-37.63,-48.64,107.62
Uptime 00:00:13, 23.66, -0.57,  0.00,  1.09, 27.08,-34.81, 13.83,  0.03,-27.50, 47.71, 38.30,603.57; 31.75, -0.10,  0.13,  0.91,-29.78,-27.23,-31.55,  8.09, -6.53,-40.54,-51.03,103.49
Uptime 00:00:13, 23.61,  0.13, -0.04,  1.20, 10.02,-31.01, 43.65, -1.77,  6.27, 48.01, 33.39,609.34; 31.89,  0.25, -0.27,  1.08, 26.93,-29.40, -7.99,-13.80, 12.77,-36.52,-54.07,102.44
Uptime 00:00:13, 23.75, -0.07,  0.40,  0.92, 39.05, 21.56,-13.88, 23.41, -3.79, 52.50, 35.55,607.53; 31.80, -0.31,  0.27,  0.72, 26.56, 51.54, 17.18, 19.34,-22.04,-32.02,-45.98,104.67
Uptime 00:00:13, 23.71, -0.06,  0.10,  1.19, 12.33, 43.36, 26.11,  5.00, -3.04, 53.12, 40.42,610.93; 31.80, -0.18, -0.08,  1.20,-68.51,-16.47,-10.77, -3.67, -8.32,-40.18,-47.00,103.27
Uptime 00:00:14, 23.56,  0.01,  0.31,  0.86,-18.66, 22.31, 22.33, 19.87,  0.57, 50.02, 42.51,613.90; 31.80, -0.11,  0.04,  0.91,-22.92,-19.49,-42.49,  2.35, -6.63,-42.32,-48.46, 97.62
Uptime 00:00:14, 23.71, -0.71, -0.03,  1.35, 36.36,-23.08, 24.11, -1.20,-27.82, 53.63, 39.28,617.03; 31.80, -0.23, -0.54,  1.14,-10.07,-61.49,  4.86,-25.02,-10.26,-43.26,-55.12, 98.25
Uptime 00:00:14, 23.66, -0.03, -0.09,  1.13, 26.68,  5.47, 55.75, -4.54, -1.33, 55.86, 39.21,624.28; 31.80, -0.73,  0.44,  1.10,-15.49, 69.18, 10.89, 18.30,-31.57,-44.00,-44.58, 99.67
Uptime 00:00:14, 23.71, -0.08, -0.04,  0.90,-10.53,-47.48, -4.41, -2.30, -5.13, 53.33, 32.34,623.69; 31.75, -0.03, -0.16,  0.72,-12.02,-74.76,-27.38,-12.63, -2.34,-44.94,-53.38, 96.03
Uptime 00:00:14, 23.66,  0.12, -0.14,  1.03, 40.70, 52.18,  8.91, -7.65,  6.79, 57.29, 38.21,624.85; 31.75,  0.17, -0.27,  1.13, 12.45, 67.51,-63.87,-13.10,  8.09,-42.72,-43.88, 87.72
Uptime 00:00:14, 23.75, -0.50,  0.35,  0.74, -2.88, 16.55, 18.23, 21.18,-31.58, 56.20, 40.22,627.26; 31.85, -0.30,  0.08,  0.97, 26.91,-25.75,-16.80,  4.45,-17.07,-38.29,-45.99, 85.50
Uptime 00:00:14, 23.66, -0.24, -0.20,  0.89,  0.70,-27.97,-29.57,-12.33,-14.79, 54.92, 36.12,623.38; 31.85, -0.06, -0.39,  0.84,-57.07,-28.52,-16.63,-24.99, -3.61,-45.35,-48.66, 83.33
Uptime 00:00:14, 23.75, -0.07,  0.09,  1.29, 19.67,-41.07, 19.97,  4.08, -3.03, 56.41, 30.22,625.98; 31.85, -0.05, -0.36,  1.32, 36.68,-48.03, 18.70,-15.41, -2.27,-40.08,-53.76, 85.76
Uptime 00:00:15, 23.71,  0.28,  0.26,  0.70,-11.00,  9.36,  1.01, 19.05, 20.38, 54.24, 30.42,626.11; 31.94,  0.46,  0.01,  0.26, 43.31,-32.50,-24.97,  1.46, 60.35,-33.65,-58.09, 82.46
Uptime 00:00:15, 23.71, -0.18, -0.04,  1.18, 15.03, 48.78, 53.37, -1.94, -8.50, 55.04, 36.25,633.10; 31.75, -0.45, -0.63,  1.03,-58.02, -0.26,-100.94,-29.18,-20.35,-41.01,-56.56, 69.24
Uptime 00:00:15, 23.80, -0.15,  0.20,  0.98,-36.19, -2.58, 59.43, 11.39, -8.44, 49.52, 35.36,640.89; 31.85,  0.30,  0.00,  0.89, 28.10, 30.29,-28.34,  0.10, 18.67,-36.58,-51.91, 65.52
Uptime 00:00:15, 23.66, -0.55, -0.02,  1.10, 36.86, -2.04,  8.30, -1.10,-26.79, 53.28, 34.92,641.98; 31.85, -0.32, -0.57,  0.54, 36.68,-16.00,  3.67,-42.13,-22.47,-31.94,-52.49, 66.01
Uptime 00:00:15, 23.71, -0.05, -0.04,  1.15,-29.20, 12.67,-27.36, -2.09, -2.60, 48.45, 35.89,638.43; 31.89, -0.02, -0.12,  0.96,-66.95, 97.53,110.35, -6.96, -1.45,-39.97,-38.99, 80.35
Uptime 00:00:15, 23.75, -0.20,  0.12,  1.17,  5.14,-14.21, 39.51,  5.57, -9.48, 48.25, 33.55,643.56; 31.89, -0.11, -0.30,  0.99,  0.04,-46.98, 21.90,-16.65, -6.07,-39.50,-44.07, 83.20
Uptime 00:00:15, 23.80, -0.18,  0.11,  0.77,-23.34, -3.91, -7.80,  7.66,-12.94, 44.40, 32.63,642.53; 31.80,  0.13, -0.15,  1.10, 46.91,-33.04,  2.15, -7.93,  6.73,-32.76,-47.63, 83.49
Uptime 00:00:16, 23.80,  0.03,  0.00,  0.80,-34.71, -4.64, 53.57,  0.28,  2.22, 39.09, 31.34,649.49; 31.89,  0.09, -0.06,  0.78,-28.85,-21.77,-107.43, -4.66,  6.50,-35.87,-49.58, 69.52
Uptime 00:00:16, 23.71, -0.34, -0.27,  1.16, 24.21, -3.69,  4.41,-12.80,-15.96, 41.16, 30.56,650.07; 31.89,  0.07, -0.72,  1.10, 43.02,-30.49,-33.14,-33.32,  3.17,-30.29,-52.57, 65.18
Uptime 00:00:16, 23.71, -0.38,  0.27,  1.08,-13.55, -5.05, 35.45, 13.10,-18.98, 38.83, 29.67,654.78; 31.89, -0.16, -0.20,  0.35, 31.83,  9.07, 29.40,-27.51,-21.52,-26.09,-49.90, 69.09
Uptime 00:00:16, 23.71,  0.05,  0.26,  1.08, 10.54,-15.30, -3.83, 13.71,  2.77, 39.68, 27.06,654.28; 31.89,  0.11, -0.08,  1.19,-80.19, 14.86, 62.45, -3.85,  5.47,-35.94,-47.11, 77.27
Uptime 00:00:16, 23.80, -0.12, -0.12,  1.19, -2.83, 34.18, 12.47, -5.70, -5.53, 38.41, 31.05,655.93; 31.94, -0.16, -0.37,  1.03,  4.74, 10.55, -6.57,-19.50, -8.45,-35.00,-44.63, 76.41
Uptime 00:00:16, 23.75, -0.23,  0.48,  1.02, -0.24, 35.21, 67.63, 24.71,-11.30, 38.11, 35.14,664.72; 31.94,  0.06, -0.20,  0.97, 45.52, 28.80,-24.30,-11.50,  3.29,-28.73,-40.14, 73.25
Uptime 00:00:16, 23.71, -0.49,  0.07,  1.11,-24.74,-21.07, 17.63,  3.45,-23.84, 34.24, 32.21,667.03; 32.04, -0.09, -0.21,  1.05,-12.98,-82.72,-80.17,-11.14, -4.87,-30.04,-49.86, 62.74
Uptime 00:00:16, 23.75, -0.42,  0.01,  0.98, -7.59,-52.18, 36.98,  0.50,-22.99, 32.58, 25.27,671.91; 31.94, -0.23, -0.49,  1.10, 37.57,-22.36,-11.38,-23.38,-10.67,-25.05,-51.54, 61.24
Uptime 00:00:17, 23.80, -0.15,  0.21,  0.88, -2.54, 10.69, 14.99, 13.26, -9.20, 31.87, 26.33,673.87; 31.85, -0.04,  0.07,  1.04, 18.91, 16.98, 11.90,  3.59, -2.39,-22.05,-48.28, 62.80
Uptime 00:00:17, 23.75,  0.24,  0.09,  1.10, 52.25,-16.47,-39.47,  4.52, 12.20, 37.98, 23.46,668.74; 31.94,  0.38,  0.37,  1.19,-37.75,-33.74, 16.10, 16.51, 16.76,-26.09,-51.95, 64.89
Uptime 00:00:17, 23.71, -0.20, -0.27,  1.07, 15.03, 40.12,-22.14,-13.79,-10.08, 38.99, 28.65,665.67; 31.94, -0.10, -0.45,  1.02,-14.20, -1.30,-16.14,-23.76, -5.27,-27.98,-50.98, 62.65
Uptime 00:00:17, 23.75, -0.04,  0.26,  0.83,-32.89,-13.75,  0.66, 17.30, -2.86, 34.37, 26.39,665.75; 31.94,  0.11, -0.03,  0.87,  6.27,-45.68,-26.07, -2.26,  7.36,-26.66,-55.93, 59.26
Uptime 00:00:17, 23.71, -0.16, -0.01,  1.07, 25.60, 27.99,-10.43, -0.41, -8.33, 36.93, 29.59,664.40; 32.04, -0.07, -0.21,  1.04, 18.93,  0.00,-21.81,-11.63, -3.76,-23.95,-54.73, 56.43
Uptime 00:00:17, 23.80, -0.18,  0.21,  0.98, 11.90,  8.64, 35.04, 11.66,-10.41, 37.98, 30.33,669.06; 31.99, -0.28, -0.08,  1.17, -6.74, -2.41,-49.43, -3.98,-13.26,-24.43,-53.69, 49.85
Uptime 00:00:17, 23.75, -0.40, -0.02,  0.81,-40.22,-23.77, -7.05, -1.03,-26.30, 32.07, 27.22,668.14; 32.08, -0.06, -0.14,  0.84,-12.46,-32.84,-31.15, -9.09, -3.76,-25.71,-56.72, 45.80
Uptime 00:00:17, 23.80,  0.23,  0.04,  1.04, 36.37,-12.11, 15.53,  2.41, 12.38, 36.11, 24.89,670.16; 31.99,  0.16, -0.36,  1.16, 12.18,-21.51,-33.00,-17.11,  7.28,-23.99,-58.47, 41.51
Uptime 00:00:18, 23.75, -0.25,  0.31,  1.19,  5.12,110.23, 43.66, 14.47,-11.26, 36.35, 38.99,675.96; 31.99, -0.35,  0.06,  1.05, 46.18, 35.15,-46.33,  3.02,-18.30,-17.43,-52.36, 35.35
Uptime 00:00:18, 23.80, -0.31,  0.02,  0.97, -9.23,-32.93,  9.98,  1.22,-17.99, 34.47, 34.37,677.26; 31.99,  0.14,  0.32,  0.87,-87.41,-25.95,-51.53, 19.72,  8.48,-27.82,-54.79, 28.65
Uptime 00:00:18, 23.75, -0.44, -0.03,  1.17,  9.63,-61.34, 65.34, -1.29,-20.44, 35.00, 26.16,685.89; 31.99, -0.34, -0.70,  1.09,-28.43,-62.40, 54.65,-31.68,-14.62,-31.58,-61.47, 35.87
Uptime 00:00:18, 23.80,  0.10,  0.11,  1.04,-15.00,-24.44, 24.62,  5.90,  5.40, 32.51, 22.41,689.09; 32.08, -0.05,  0.04,  0.91,  5.86,-54.46,103.75,  2.47, -3.31,-30.15,-67.11, 49.35
Uptime 00:00:18, 23.75,  0.51,  0.01,  1.02, 30.92,  7.59, 95.13,  0.75, 26.61, 35.84, 22.40,701.55; 32.04,  0.66, -0.31,  0.86, 59.83, 41.28, 78.16,-15.95, 35.88,-22.19,-61.19, 59.59
Uptime 00:00:18, 23.80, -0.43,  0.04,  1.00,-27.79, 42.84, 68.37,  2.07,-23.08, 31.57, 27.96,710.57; 32.04, -0.42, -0.29,  1.37, -5.26,-58.18,-87.18,-11.44,-16.64,-22.65,-67.16, 48.08
Uptime 00:00:18, 23.75,  0.36,  0.13,  0.86,-33.87, -0.72, 45.07,  8.14, 22.37, 26.79, 26.86,716.43; 32.04,  0.34, -0.04,  0.88,-15.41,  3.93,-30.69, -2.39, 20.77,-24.21,-65.73, 44.09
Uptime 00:00:19, 23.80, -0.75, -0.04,  1.05,-11.95, 41.01, 28.93, -1.58,-35.64, 24.69, 32.30,720.22; 32.04, -0.29, -0.57,  1.10, 25.38, 35.15,-13.99,-26.61,-13.00,-21.00,-59.64, 42.26
Uptime 00:00:19, 23.71, -0.47, -0.49,  0.90, -6.66,-105.91, 31.48,-25.60,-24.69, 22.82, 18.45,724.38; 32.13, -0.19, -0.18,  1.06,-12.34,-81.04, 30.38, -9.69, -9.78,-22.37,-68.74, 46.27
Uptime 00:00:19, 23.85, -0.04, -0.28,  1.10, -9.56, 51.83, 57.56,-14.25, -1.87, 20.86, 24.72,731.86; 32.04,  0.00, -0.39,  0.98, -3.39, -1.52, 28.91,-21.84,  0.16,-22.79,-67.56, 50.03
Uptime 00:00:19, 23.80,  0.09, -0.35,  1.08,-15.88,-19.74, 90.26,-17.73,  4.63, 18.06, 21.62,743.59; 32.04,  0.43, -0.16,  0.97, 39.44, 15.31, 99.73, -8.75, 23.84,-17.48,-64.73, 63.00
Uptime 00:00:19, 23.85, -0.19, -0.22,  0.93,  6.60, 20.09, 70.95,-12.97,-11.25, 18.30, 24.03,753.03; 32.08, -0.12, -0.23,  0.92,  7.31,  8.81, 47.29,-14.01, -6.94,-16.46,-62.15, 69.29
Uptime 00:00:19, 23.99, -0.09, -0.30,  0.90,-13.40, 11.15, 34.82,-18.29, -5.24, 15.87, 25.08,757.56; 32.08, -0.12, -0.01,  0.95, 22.73, -3.77,-10.88, -0.87, -7.07,-13.25,-61.25, 67.87
Uptime 00:00:19, 23.85, -0.17, -0.27,  0.92, -4.51, -3.54, 27.24,-16.30,-10.05, 14.63, 24.31,761.18; 32.08, -0.04, -0.10,  0.99, 14.76,-10.90,-21.30, -5.69, -2.04,-11.18,-61.40, 65.04
Uptime 00:00:19, 23.89, -0.08, -0.19,  1.05,  5.75, -1.68, 35.05,-10.12, -4.50, 14.87, 23.70,765.74; 32.04,  0.06,  0.05,  0.98,  4.90, -9.16,-14.11,  3.01,  3.49,-10.27,-61.41, 63.20
Uptime 00:00:20, 23.85, -0.35, -0.23,  0.95, 14.71, 13.15, 34.38,-12.77,-19.51, 16.19, 25.29,770.21; 32.08, -0.09,  0.06,  0.99,-10.02, -5.49, -5.56,  3.57, -4.92,-11.27,-60.78, 62.48
Uptime 00:00:20, 23.80, -0.15, -0.30,  1.03, 11.26,  0.44, 33.86,-16.14, -7.95, 17.00, 25.01,774.67; 31.99,  0.00, -0.02,  1.01, -1.70,-15.63, -0.08, -1.29,  0.21,-11.29,-61.59, 62.47
Uptime 00:00:20, 23.85, -0.27, -0.31,  0.92,  2.59, -1.59, 31.48,-17.80,-15.40, 16.64, 24.61,778.77; 32.18, -0.08, -0.05,  0.97, -1.12, -9.88,  0.51, -2.94, -4.47,-11.27,-61.53, 62.54
Uptime 00:00:20, 23.85, -0.16, -0.31,  1.03,  7.46, 13.41, 33.43,-16.57, -8.45, 16.92, 26.00,783.11; 32.08,  0.01, -0.12,  1.00, -6.34, -7.07,-11.32, -6.76,  0.47,-11.99,-61.21, 61.06
Uptime 00:00:20, 23.80, -0.17, -0.20,  0.99, 17.32, -4.69, 20.66,-11.31, -9.75, 18.60, 25.06,785.84; 32.08,  0.03, -0.01,  1.03,-17.23,-11.89, -6.89, -0.43,  1.75,-13.98,-61.56, 60.15
Uptime 00:00:20, 23.85, -0.14, -0.23,  1.01,  8.36,  6.90, 22.59,-12.95, -7.64, 19.03, 25.60,788.78; 32.22, -0.07, -0.00,  1.01, -7.26,-11.23, -8.95, -0.26, -3.98,-14.63,-61.68, 58.99
Uptime 00:00:20, 23.89, -0.24, -0.29,  0.95,  9.40, -3.56, 25.36,-16.66,-13.74, 19.53, 24.90,792.10; 32.08, -0.03, -0.11,  0.99, -6.17,-16.43, -9.00, -6.24, -1.85,-15.26,-62.52, 57.81
Uptime 00:00:21, 23.85, -0.17, -0.16,  1.06,  7.43,  3.65, 36.35, -8.63, -9.20, 19.93, 25.06,796.93; 32.13, -0.06, -0.20,  1.09, -8.28,  0.03, -7.65,-10.40, -2.99,-16.24,-61.20, 56.79
Uptime 00:00:21, 23.89, -0.11, -0.24,  1.03, 17.03,-15.17, 19.89,-13.00, -6.14, 21.44, 22.75,799.52; 32.22,  0.06, -0.11,  1.08,  3.95, -9.08, -4.77, -6.02,  3.29,-15.53,-61.20, 56.17
Uptime 00:00:21, 23.75, -0.21, -0.22,  0.96, -5.50, -6.50, 14.91,-12.40,-12.04, 20.06, 21.71,801.46; 32.22, -0.04, -0.03,  0.96,  7.40,-19.77, -4.30, -2.07, -2.43,-14.32,-62.45, 55.62
Uptime 00:00:21, 23.89, -0.30, -0.31,  1.03, 14.68,  5.12, 22.50,-16.12,-15.45, 21.25, 22.25,804.45; 32.22, -0.09, -0.10,  1.01,  3.77,-14.27,-16.57, -5.89, -4.83,-13.66,-62.96, 53.41
Uptime 00:00:21, 23.85, -0.25, -0.33,  0.99, -5.47, -1.63, 24.15,-18.04,-13.68, 19.77, 21.87,807.59; 32.13, -0.08, -0.14,  1.06,  5.32, -9.92, -8.66, -7.77, -4.18,-12.87,-62.88, 52.29
Uptime 00:00:21, 23.80, -0.24, -0.16,  1.00,  8.05,  5.57, 28.59, -8.70,-13.32, 20.24, 22.42,811.37; 32.22, -0.08, -0.08,  1.01,  0.86, -1.86, -5.29, -4.55, -4.53,-12.59,-61.78, 51.59
Uptime 00:00:21, 23.85, -0.16, -0.31,  0.93, 14.04, -2.56, 23.48,-18.10, -9.32, 21.26, 21.83,814.42; 32.32,  0.07, -0.03,  0.95, -6.13,-10.90, -2.83, -2.00,  3.95,-13.16,-62.01, 51.22
Uptime 00:00:21, 23.75, -0.21, -0.21,  1.00, 10.51,  5.31, 18.81,-11.64,-11.43, 21.95, 22.30,816.86; 32.13, -0.06, -0.02,  1.02, -5.09,-14.85, -3.82, -1.24, -3.51,-13.57,-62.59, 50.72
Uptime 00:00:22, 23.89, -0.20, -0.35,  0.97,  1.67, 11.80, 23.01,-19.21,-11.22, 21.34, 23.61,819.90; 32.27, -0.04, -0.16,  1.03, -1.21,-11.52, -9.18, -8.68, -1.95,-13.63,-62.79, 49.51
Uptime 00:00:22, 23.80, -0.12, -0.28,  1.00,  7.92, 10.02, 17.77,-15.61, -6.81, 21.61, 24.55,822.21; 32.27,  0.02, -0.14,  1.02,  0.47, -6.84,-14.16, -7.59,  0.95,-13.45,-62.43, 47.67
Uptime 00:00:22, 23.89, -0.17, -0.22,  0.94, 10.31,  8.05, 10.03,-13.19, -9.78, 22.24, 25.28,823.52; 32.27,  0.04, -0.07,  1.03,  0.67,-10.00,-13.46, -3.89,  2.38,-13.17,-62.51, 45.91
Uptime 00:00:22, 23.94, -0.31, -0.24,  1.01,  3.55, -3.34, 16.03,-12.89,-16.55, 22.00, 24.67,825.66; 32.27, -0.05, -0.09,  1.04,  4.99,-21.85, -5.00, -4.93, -2.94,-12.35,-64.05, 45.24
Uptime 00:00:22, 23.89, -0.20, -0.30,  1.04,  0.54, 22.06, 28.38,-15.67,-10.29, 21.31, 27.20,829.34; 32.27, -0.00, -0.08,  0.94, -1.72, -9.33,-10.82, -5.08, -0.24,-12.43,-63.95, 43.84
Uptime 00:00:22, 23.85, -0.19, -0.34,  0.94, 13.81,  3.96, 14.56,-19.59,-10.77, 22.27, 27.38,831.25; 32.18, -0.02, -0.17,  1.00,  0.54, -4.23, -3.04, -9.36, -1.23,-12.30,-63.19, 43.44
Uptime 00:00:22, 23.89, -0.31, -0.13,  1.00, 10.50,  2.95, 15.14, -7.24,-17.01, 23.05, 27.55,833.27; 32.18, -0.04, -0.04,  1.02,  8.31,-11.94,-12.46, -2.23, -2.29,-11.01,-63.43, 41.78
Uptime 00:00:22, 23.85, -0.18, -0.24,  0.94, 11.35, -4.03, 11.33,-14.39,-10.68, 23.74, 26.70,834.74; 32.32,  0.04, -0.02,  0.97,  5.26,-18.94,-18.51, -1.06,  2.54,-10.14,-64.63, 39.37
Uptime 00:00:23, 23.99, -0.24, -0.20,  1.02, -5.18, 10.32, 10.43,-10.64,-12.92, 22.34, 27.84,836.20; 32.32, -0.07,  0.00,  1.02,  7.64,-22.29,-13.91,  0.05, -3.74, -8.89,-66.32, 37.43
Uptime 00:00:23, 23.94, -0.14, -0.31,  1.00, -1.55,  9.41, 26.00,-17.03, -7.89, 21.36, 28.64,839.58; 32.32, -0.03, -0.05,  0.99,  4.42, -9.78,-10.20, -2.64, -1.91, -8.20,-66.20, 36.10
Uptime 00:00:23, 23.89, -0.02, -0.26,  1.11, -5.59,  7.41, 17.16,-13.37, -0.84, 19.95, 29.03,841.81; 32.41,  0.02,  0.02,  1.05, 20.15, -5.48,-10.78,  1.07,  0.97, -5.45,-65.60, 34.70
Uptime 00:00:23, 23.89, -0.22, -0.20,  0.90, 11.21,  0.81,  9.63,-12.14,-13.57, 20.76, 28.83,843.08; 32.41, -0.03,  0.03,  0.98,  5.49,-10.03, -9.04,  1.79, -1.54, -4.59,-65.55, 33.50
Uptime 00:00:23, 23.89, -0.35, -0.26,  0.96,  8.51, -2.58, 21.02,-14.42,-19.27, 21.14, 28.31,845.81; 32.32, -0.01,  0.05,  1.01,  4.07,-11.77,-11.70,  2.88, -0.63, -3.93,-65.73, 31.98
Uptime 00:00:23, 23.89, -0.25, -0.25,  0.96,  8.19, 12.66, 22.52,-14.11,-14.05, 21.48, 29.63,848.74; 32.22, -0.05,  0.09,  0.98,  0.01, -5.23,-16.01,  5.35, -2.72, -3.74,-65.02, 29.90
Uptime 00:00:23, 23.94, -0.18, -0.32,  0.85,  1.49,  6.79, 19.05,-20.12,-11.02, 20.84, 30.14,851.26; 32.32,  0.02, -0.01,  0.97,  6.06,-13.10,-14.63, -0.60,  1.39, -2.89,-65.45, 27.97
Uptime 00:00:24, 23.80, -0.21, -0.21,  0.94, 10.71,  5.92, 20.12,-12.11,-12.16, 21.55, 30.53,853.87; 32.36,  0.04,  0.06,  0.97,  3.37,-18.43,-13.72,  3.71,  2.47, -2.33,-66.53, 26.19
Uptime 00:00:24, 23.85, -0.22, -0.27,  0.98,  7.52, -9.39, 22.37,-14.91,-12.31, 21.80, 28.95,856.85; 32.41,  0.01,  0.07,  0.95, -3.12,-13.13, -5.69,  4.23,  0.48, -2.61,-66.92, 25.43
Uptime 00:00:24, 23.89, -0.28, -0.26,  0.99, -3.92, 21.27, 33.97,-14.22,-15.30, 20.57, 31.42,861.33; 32.46, -0.10,  0.09,  0.95, -2.48, -6.17,-10.46,  5.12, -5.83, -2.77,-66.27, 24.05
Uptime 00:00:24, 23.94,  0.02, -0.27,  0.88, -2.02, 15.91, 30.72,-17.26,  1.26, 19.56, 32.80,865.32; 32.46,  0.09,  0.03,  1.01, -1.93, -7.25, -8.59,  1.63,  5.02, -2.93,-65.97, 22.93
Uptime 00:00:24, 24.08, -0.26, -0.26,  1.01, 14.92, -7.21, 32.11,-14.20,-13.95, 20.80, 31.50,869.53; 32.46, -0.07,  0.06,  0.98, -9.82, -5.98,  5.92,  3.75, -4.00, -4.06,-65.33, 23.71
Uptime 00:00:24, 23.94, -0.24, -0.26,  1.01,  0.18, -1.40, 33.39,-14.32,-12.76, 20.12, 30.94,873.97; 32.36, -0.04,  0.02,  1.01, -5.79,-15.20,  0.97,  0.95, -2.43, -4.71,-65.96, 23.84
Uptime 00:00:24, 23.89, -0.15, -0.26,  0.96,  4.21,  8.15, 39.69,-14.76, -8.41, 19.96, 31.53,879.13; 32.46, -0.08, -0.04,  1.03, -8.85,  1.38,  8.59, -2.06, -4.37, -5.79,-64.38, 24.95
Uptime 00:00:24, 23.89, -0.23, -0.28,  0.91,  8.13, 11.73, 38.26,-16.92,-13.50, 20.27, 32.68,884.18; 32.36, -0.08, -0.06,  0.99, -8.07,  2.99, 10.35, -3.30, -4.41, -6.78,-62.62, 26.32
Uptime 00:00:25, 23.99, -0.21, -0.26,  0.98, 12.74,-16.98, 46.29,-14.69,-11.63, 21.21, 30.08,890.24; 32.46,  0.07,  0.03,  1.00, -5.17,-17.92, 15.23,  1.86,  3.96, -7.27,-63.74, 28.31
Uptime 00:00:25, 23.99, -0.20, -0.23,  1.09,  8.54, 21.47, 39.49,-11.91,-10.23, 21.63, 32.42,895.38; 32.51, -0.08,  0.05,  0.97,  0.70,  7.06, -3.01,  2.97, -4.92, -6.98,-61.47, 27.92
Uptime 00:00:25, 24.04,  0.02, -0.28,  1.00, 18.82,-21.60, 20.64,-15.75,  1.01, 23.32, 28.96,898.10; 32.41,  0.05, -0.05,  1.02,  9.12, -9.34,-15.26, -2.96,  2.88, -5.72,-61.51, 25.91
Uptime 00:00:25, 23.99, -0.39, -0.13,  0.82, 16.97,  1.86,-11.89, -8.35,-25.27, 24.85, 29.12,896.56; 32.51, -0.04, -0.07,  0.90,  6.61,-13.16,-28.51, -4.16, -2.80, -4.84,-61.90, 22.20
Uptime 00:00:25, 23.99, -0.11, -0.21,  1.00,  4.19,-48.96,  1.82,-11.83, -6.19, 24.65, 22.42,896.79; 32.55,  0.05,  0.09,  1.02,-19.47,-58.69, -9.79,  4.79,  2.95, -7.13,-68.20, 20.93
Uptime 00:00:25, 23.99, -0.41, -0.27,  0.95,  1.06,-11.27, 28.84,-14.69,-22.68, 24.00, 20.95,900.66; 32.41, -0.03, -0.08,  0.95,-10.46, -8.35, 13.15, -4.71, -1.85, -8.46,-67.89, 22.69
Uptime 00:00:25, 23.94, -0.11, -0.27,  1.21,  9.29, 51.96, 34.55,-12.67, -5.27, 24.45, 27.26,905.15; 32.41, -0.02, -0.12,  0.80, 33.19, 34.14,  1.80, -8.48, -1.21, -4.23,-62.16, 22.93
Uptime 00:00:25, 23.99, -0.42, -0.06,  0.93, 30.97, 31.59, 45.40, -3.51,-24.37, 27.84, 31.22,911.05; 32.41, -0.44,  0.04,  0.94,  3.31,-22.76,-42.68,  1.95,-25.22, -3.69,-63.31, 17.38
Uptime 00:00:26, 24.04, -0.26, -0.03,  0.77, 23.12, -6.21, -4.28, -2.30,-18.43, 30.25, 30.16,910.48; 32.51,  0.18,  0.17,  0.92, -4.52,-20.23,-18.98, 10.00, 11.00, -4.00,-64.90, 14.85
Uptime 00:00:26, 24.08, -0.21, -0.05,  0.99, 50.89,-23.88, -9.10, -2.59,-12.24, 36.08, 26.76,909.30; 32.46,  0.08,  0.12,  0.88,-22.23,-27.14,-11.12,  7.45,  5.22, -6.61,-67.17, 13.41
Uptime 00:00:26, 23.94,  0.05,  0.21,  1.18, 17.02,-13.01,  1.59, 10.10,  2.19, 37.72, 24.52,909.51; 32.41, -0.08,  0.27,  1.13,-42.40, 27.82, 46.96, 13.47, -3.99,-11.61,-62.20, 19.51
Uptime 00:00:26, 24.08,  0.54, -0.39,  0.99, 49.40,115.48, 43.25,-19.24, 27.07, 42.83, 38.09,915.08; 32.46, -0.33, -0.49,  1.21,-24.66,133.65,-13.76,-21.31,-14.38,-14.92,-43.77, 17.74
Uptime 00:00:26, 23.99, -0.67,  0.27,  0.76,-15.88, 66.63, 46.79, 14.84,-39.76, 40.25, 46.61,921.17; 32.46, -0.33, -0.06,  0.75,-45.35, 81.62, 17.25, -4.27,-24.03,-20.48,-32.02, 19.98
Uptime 00:00:26, 23.99, -0.68, -0.32,  1.08, 17.78, -8.15, 24.33,-14.22,-31.30, 41.47, 45.24,924.40; 32.55, -0.50, -0.49,  0.77, -6.27, 28.06, -8.68,-28.29,-28.62,-21.45,-27.15, 18.82
Uptime 00:00:26, 23.89, -0.78,  0.11,  0.75, -2.83, 48.28, 28.33,  5.88,-45.71, 40.40, 51.40,928.09; 32.65, -0.57, -0.24,  0.68,  3.57,  9.91,  5.57,-15.14,-38.10,-20.87,-24.58, 19.55
Uptime 00:00:27, 24.04, -0.52,  0.02,  0.81,-24.69,-10.55,  8.93,  1.27,-32.67, 36.45, 49.67,929.26; 32.46, -0.56, -0.23,  0.59,  7.57, 12.89,-11.47,-15.63,-41.28,-19.80,-21.61, 18.04
Uptime 00:00:27, 23.99, -0.76,  0.07,  0.84,  4.73, 37.39, 32.27,  3.32,-42.16, 36.40, 54.36,933.52; 32.55, -0.66, -0.23,  0.62,  1.95, 15.35, -4.07,-13.96,-45.04,-19.43,-18.29, 17.51
Uptime 00:00:27, 24.04, -0.71,  0.01,  0.84,  7.38, -6.73, 19.69,  0.51,-40.17, 36.62, 53.22,936.08; 32.55, -0.67, -0.26,  0.55, -0.69,-10.07, -1.90,-16.58,-47.89,-19.46,-18.25, 17.26
Uptime 00:00:27, 23.99, -0.68,  0.03,  0.93,  1.73,  3.56, 22.93,  1.68,-36.32, 36.14, 53.33,939.06; 32.55, -0.68, -0.19,  0.58,  8.15, -8.27, -8.43,-11.97,-47.87,-18.27,-17.98, 16.16
Uptime 00:00:27, 24.13, -0.74,  0.02,  0.81,  5.70, 11.92, 17.66,  0.86,-42.32, 36.18, 54.67,941.41; 32.60, -0.69, -0.14,  0.57,  5.32,-14.61,-12.11, -8.58,-49.60,-17.38,-18.53, 14.55
Uptime 00:00:27, 23.99, -0.80,  0.06,  0.77,  5.50,  4.89, 18.14,  3.11,-45.83, 36.22, 55.11,943.77; 32.51, -0.75, -0.11,  0.61, -0.74, -1.86, -7.72, -6.23,-50.68,-17.26,-17.39, 13.55
Uptime 00:00:27, 23.94, -0.82,  0.06,  0.83,  2.70,  8.34, 25.19,  3.01,-44.61, 35.90, 55.97,947.07; 32.60, -0.75, -0.12,  0.55,  3.98, -9.36,-16.45, -7.49,-53.03,-16.55,-17.18, 11.40
Uptime 00:00:27, 23.99, -0.61,  0.06,  0.84,  2.85,  1.74, 18.03,  3.53,-35.69, 35.63, 55.79,949.46; 32.60, -0.65, -0.14,  0.61,  4.90,-20.20,-16.34, -8.85,-46.19,-15.76,-18.54,  9.22
Uptime 00:00:28, 24.08, -0.66, -0.01,  0.81, -0.47,-10.08, 25.14, -0.64,-38.89, 34.84, 54.17,952.73; 32.69, -0.59, -0.19,  0.55,  8.47,-14.53, -6.08,-13.11,-45.47,-14.63,-19.12,  8.43
Uptime 00:00:28, 23.94, -0.65,  0.04,  0.84, 14.28,  9.97, 20.03,  2.19,-37.62, 36.04, 55.13,955.38; 32.60, -0.76, -0.12,  0.55,  9.43, -2.76,-14.07, -7.55,-53.50,-13.26,-18.02,  6.57
Uptime 00:00:28, 24.08, -0.79,  0.08,  0.85,  6.73, -3.66,  4.78,  3.72,-42.91, 36.25, 54.42,956.00; 32.60, -0.69, -0.09,  0.60,  6.24,-10.96, -7.59, -5.38,-48.68,-12.31,-18.09,  5.58
Uptime 00:00:28, 24.04, -0.76,  0.00,  0.86,  8.31, 11.18, 16.81,  0.04,-41.44, 36.60, 55.59,958.20; 32.55, -0.73, -0.17,  0.56,  4.90,-18.27,-14.92,-10.49,-51.38,-11.64,-19.05,  3.62
Uptime 00:00:28, 24.08, -0.67, -0.01,  0.87,  1.38,  8.89, 20.46, -0.38,-37.77, 36.04, 56.39,960.90; 32.65, -0.67, -0.16,  0.54, 12.80,-15.69,-12.69,-10.64,-50.02, -9.96,-19.70,  1.95
Uptime 00:00:28, 24.04, -0.64,  0.00,  0.85, 12.82,-14.38, 22.64,  0.14,-36.74, 36.95, 54.16,963.85; 32.60, -0.77, -0.15,  0.61, 10.07,-19.56, -9.67, -8.74,-50.76, -8.66,-20.78,  0.69
Uptime 00:00:28, 24.08, -0.71, -0.04,  0.90,  0.47, -5.48, 16.50, -1.84,-38.25, 36.23, 53.14,966.01; 32.60, -0.66, -0.21,  0.52, -7.27,-19.97,-10.54,-14.17,-49.55, -9.70,-21.94, -0.69
Uptime 00:00:29, 24.04, -0.66,  0.03,  0.89, 10.74,  3.30, 27.46,  1.52,-36.50, 37.00, 53.25,969.83; 32.65, -0.73, -0.08,  0.64,  3.05, -4.72, -6.24, -4.49,-48.66, -9.18,-21.17, -1.56
Uptime 00:00:29, 24.08, -0.60,  0.10,  0.94,  6.99,  7.25, 26.08,  4.92,-32.70, 37.25, 53.77,973.22; 32.65, -0.71, -0.03,  0.74, -6.56,-22.30,-11.50, -1.92,-43.82, -9.87,-22.71, -3.05
Uptime 00:00:29, 24.04, -0.57,  0.18,  0.90,  8.28,-14.03, 29.56,  9.33,-31.74, 37.75, 51.54,977.06; 32.65, -0.72,  0.03,  0.57,  0.48,-36.61,-14.97,  1.60,-51.72, -9.58,-25.88, -5.00
Uptime 00:00:29, 24.08, -0.64,  0.07,  0.92, 29.38,-61.45, 14.06,  3.79,-34.56, 40.90, 43.19,978.93; 32.65, -0.65, -0.14,  0.78, 29.90,-133.80,-21.88, -7.85,-39.13, -5.65,-42.02, -7.91
Uptime 00:00:29, 24.08, -0.58,  0.34,  0.86, 43.43,-60.15, 12.69, 17.90,-31.91, 45.97, 35.30,980.58; 32.74, -0.21,  0.20,  0.32, 80.36,-160.98, -4.75, 27.95,-28.86,  5.26,-61.11, -8.53
Uptime 00:00:29, 24.08,  0.23,  0.28,  1.05,-13.00,-93.92, 24.17, 14.45, 11.85, 43.67, 22.30,983.74; 32.74,  0.21,  0.16,  0.95,-26.36,-33.02,-13.38,  9.04, 12.14,  1.95,-64.37,-10.28
Uptime 00:00:29, 24.08,  0.14,  0.21,  1.20,-15.18,  8.37,-15.42, 10.01,  6.66, 41.02, 22.81,981.69; 32.69, -0.11,  0.21,  1.17, 31.17,-61.98,-28.39,  9.99, -5.35,  6.18,-71.06,-14.05
Uptime 00:00:29, 24.04, -0.27,  0.17,  0.89,-11.90, 29.42, 94.76, 10.38,-16.60, 38.89, 26.44,994.01; 32.69,  0.56,  0.29,  0.97,-12.85,  0.09,-28.54, 14.48, 28.95,  4.71,-70.20,-17.76
Uptime 00:00:30, 24.08, -0.26, -0.29,  1.35, 44.92,  9.71, 14.49,-11.78,-10.66, 43.73, 27.39,995.94; 32.79, -0.13, -0.63,  1.18,-39.43, -1.85,-39.53,-28.09, -5.57, -1.09,-68.93,-23.02
Uptime 00:00:30, 24.13, -0.19,  0.20,  0.97,-16.74, 21.62, 41.85, 11.59,-10.67, 40.96, 29.81,1001.38; 32.79, -0.29, -0.00,  0.73, 11.00, 49.25, 35.23, -0.35,-21.91,  0.33,-60.84,-18.44
Uptime 00:00:30, 24.08, -0.20,  0.09,  0.96,  7.14,-50.84,-10.06,  5.14,-11.71, 41.16, 22.92,1000.06; 32.69,  0.07,  0.21,  0.88,-57.79,-66.03, 32.71, 13.15,  4.28, -6.83,-68.18,-14.16
Uptime 00:00:30, 24.22,  0.03, -0.17,  1.26, 13.32, 17.01, 20.78, -7.44,  1.29, 41.91, 24.63,1002.80; 32.69, -0.39, -0.65,  1.19, 18.18, -5.80, -5.79,-27.44,-15.87, -4.90,-67.25,-14.92
Uptime 00:00:30, 23.99,  0.18,  0.39,  0.79,-19.05, -3.45, 67.11, 25.94, 11.50, 39.14, 23.47,1011.59; 32.69,  0.50,  0.02,  0.72, 89.55,-29.28,-32.02,  1.59, 34.69,  6.73,-70.36,-19.12
Uptime 00:00:30, 24.04, -0.73, -0.24,  1.18, 12.24, 19.04,-18.67, -9.75,-31.23, 39.74, 26.07,1009.15; 32.74, -0.40, -0.47,  0.98,-81.91,-21.89,-93.90,-24.14,-20.05, -4.40,-71.36,-31.42
Uptime 00:00:30, 24.18, -0.12,  0.10,  1.03,-19.11, -1.51, 28.78,  5.56, -6.83, 36.58, 25.49,1012.95; 32.69,  0.05, -0.20,  0.89, 62.97, 42.12, 17.40,-12.60,  3.33,  3.58,-64.55,-29.12
Uptime 00:00:30, 24.18,  0.03,  0.38,  0.82,  9.89,-35.48, -5.02, 24.98,  1.84, 37.61, 20.42,1012.29; 32.74, -0.32,  0.15,  0.94, 42.01,-35.19, 20.89,  8.32,-18.43,  9.03,-67.38,-26.40
Uptime 00:00:31, 24.18,  0.25,  0.12,  1.21,-20.91, 19.77,-17.21,  5.49, 11.75, 34.28, 22.32,1010.04; 32.69,  0.04, -0.33,  1.21,-53.01, 46.58, 42.47,-15.13,  1.86,  1.74,-60.09,-20.84
Uptime 00:00:31, 24.08, -0.25,  0.21,  1.00,  5.34, 44.69,-10.61, 11.51,-13.90, 34.52, 27.97,1008.63; 32.74, -0.02, -0.13,  0.77, 22.25,-32.69,-27.17, -9.24, -1.50,  4.42,-63.11,-24.45
Uptime 00:00:31, 24.18, -0.13,  0.31,  1.09,-12.77,-77.71, 12.81, 15.69, -6.31, 32.52, 17.64,1010.29; 32.74,  0.31, -0.12,  0.81, 76.22,-100.91,-16.08, -7.85, 20.58, 13.88,-75.12,-26.54
Uptime 00:00:31, 24.08, -0.23,  0.07,  0.81,-38.40, 22.15, 33.98,  4.99,-15.44, 27.00, 20.46,1014.78; 32.69, -0.05,  0.24,  0.77,-65.01,-23.23,-48.56, 17.40, -3.53,  5.54,-76.55,-32.95
Uptime 00:00:31, 24.13,  0.51, -0.18,  1.49, 14.54, 26.41, -2.47, -6.59, 18.76, 28.20, 23.07,1014.46; 32.74,  0.42, -1.01,  1.61,-29.12, 46.06,-62.69,-31.38, 12.50,  1.07,-69.36,-41.17
Uptime 00:00:31, 24.08, -0.27,  0.24,  0.68, -0.42, 68.34, 28.38, 18.44,-20.17, 27.95, 31.72,1018.14; 32.65, -0.05,  0.04,  0.60, 87.81, 33.04,-34.65,  3.95, -4.92, 12.31,-63.66,-45.67
Uptime 00:00:31, 24.13, -0.25,  0.02,  1.26,-24.88,-59.14,-52.86,  0.76,-11.25, 24.19, 23.66,1011.17; 32.84, -0.22,  0.03,  1.02,-42.56,-77.89,-31.06,  1.64,-12.33,  6.59,-72.22,-49.77
Uptime 00:00:32, 24.18,  0.09,  0.38,  0.98,-42.33,-26.98,-22.43, 21.16,  4.68, 18.73, 19.65,1008.25; 32.74, -0.15, -0.07,  1.19, -3.39,-43.16, 23.89, -3.29, -7.12,  5.96,-76.13,-46.67
Uptime 00:00:32, 24.13,  0.46, -0.06,  1.09, 51.44,-22.81,  3.05, -3.09, 23.03, 24.85, 15.89,1008.65; 32.79,  0.51, -0.41,  0.64, -5.55,-48.73,-16.40,-26.72, 33.79,  4.60,-81.49,-48.80
Uptime 00:00:32, 24.18, -0.28,  0.12,  1.06, -0.80, 86.21, 32.20,  6.36,-14.55, 24.38, 27.02,1012.90; 32.79, -0.60,  0.02,  1.35,-46.49,-14.20,-159.90,  0.69,-23.82, -1.49,-81.22,-69.90
Uptime 00:00:32, 24.13, -0.11,  0.53,  1.02,-14.40,-30.58,  7.46, 27.21, -5.27, 22.60, 22.69,1013.87; 32.79, -0.02, -0.06,  0.84, 12.99,-13.25,-49.35, -3.77, -1.71,  0.12,-81.25,-76.32
Uptime 00:00:32, 24.18,  0.19, -0.02,  0.64, 21.98,-39.25,-32.83, -1.64, 16.75, 24.93, 16.86,1009.57; 32.79,  0.32, -0.15,  1.27, 20.77,  0.73,-26.01, -6.40, 14.08,  2.66,-79.82,-79.73
Uptime 00:00:32, 24.08, -0.27,  0.22,  1.01,-30.66, 24.12,-36.43, 11.83,-14.56, 20.71, 19.93,1004.76; 32.79, -0.24,  0.10,  0.90, 10.28,  8.00, -2.74,  6.33,-15.11,  4.06,-76.88,-80.09
Uptime 00:00:32, 24.22,  0.33, -0.38,  1.09, 43.40, 48.35,  4.44,-18.40, 16.15, 25.45, 25.37,1005.34; 32.79,  0.70, -0.81,  0.78, -3.59, -3.05,-44.85,-37.55, 32.03,  2.77,-76.37,-85.92
Uptime 00:00:32, 24.13, -0.46,  0.15,  1.20,-38.94, 23.92, 56.61,  6.56,-21.02, 20.00, 28.40,1012.87; 32.69, -0.07,  0.44,  1.19, 44.35,-47.71,-73.24, 20.42, -3.03,  8.90,-81.00,-95.66
Uptime 00:00:33, 24.13, -0.30, -0.28,  1.23, 24.63,-108.69, -4.69,-12.42,-13.20, 22.51, 14.15,1012.25; 32.79, -0.19, -0.72,  0.49,-26.95, 18.32,-16.42,-54.14,-12.14,  4.18,-76.79,-97.81
Uptime 00:00:33, 24.18,  0.19,  0.17,  1.03,-38.56,  0.60,-40.55,  9.06, 10.21, 17.33, 13.74,1006.98; 32.79,  0.23,  0.04,  1.32,-47.53, 23.06,104.42,  1.62, 10.07, -1.93,-72.52,-84.24
Uptime 00:00:33, 24.22,  0.57, -0.02,  0.98, 11.70,-32.32, 34.43, -0.78, 30.32, 18.48,  8.67,1011.53; 32.88,  0.24, -0.57,  1.09,  3.40,-63.08,-26.68,-26.89, 11.16, -1.99,-79.45,-87.76
Uptime 00:00:33, 24.08, -0.10,  0.12,  1.18, 21.98, 31.24, 79.91,  5.77, -4.69, 21.05, 12.60,1021.99; 32.69, -0.64,  0.25,  1.28, -9.49, 49.51,-98.80,  9.72,-26.03, -2.97,-70.98,-100.70
Uptime 00:00:33, 24.13, -0.14,  0.29,  1.27,-29.66,-30.15, -2.54, 12.76, -6.31, 17.08,  8.61,1021.66; 32.84,  0.17, -0.20,  0.89, -6.57,-56.23,-43.88,-12.26, 10.41, -4.00,-76.99,-106.45
Uptime 00:00:33, 24.18, -0.03,  0.09,  0.79,-16.28, 37.42, 42.29,  6.73, -2.01, 14.76, 13.32,1027.24; 32.84, -0.18, -0.07,  0.58, 47.28, 46.11, 11.70, -6.69,-17.46,  2.06,-69.14,-104.90
Uptime 00:00:33, 24.22,  0.34,  0.08,  1.17,-36.39,-50.85,-10.99,  3.62, 16.18,  9.91,  6.25,1025.81; 32.79,  0.33, -0.13,  1.03,-71.24,-26.98, 60.54, -6.94, 17.88, -7.19,-71.55,-97.03
Uptime 00:00:33, 24.22,  0.00,  0.06,  0.91, 17.53,108.28, 10.98,  3.57,  0.24, 12.03, 20.02,1027.25; 32.84,  0.08, -0.26,  0.87, 27.90,  1.44,-33.41,-16.82,  5.28, -3.80,-70.04,-101.41
Uptime 00:00:34, 24.18, -0.50,  0.31,  0.96, 17.70, -2.72,156.12, 16.17,-26.51, 14.40, 19.80,1047.86; 32.74, -0.37,  0.58,  0.82,  3.34,-18.41,-10.30, 32.69,-20.37, -2.64,-70.61,-102.77
Uptime 00:00:34, 24.32, -0.10, -0.36,  1.47, 50.31,-101.92, 46.33,-13.68, -3.70, 20.25,  6.49,1053.88; 32.74,  0.01, -0.96,  1.49,  1.58,-45.57,  5.20,-32.85,  0.21, -3.04,-75.01,-102.09
Uptime 00:00:34, 24.13, -0.25,  0.12,  0.80,-15.06, 12.43, 59.24,  7.93,-17.28, 18.04,  8.33,1061.76; 32.84, -0.18, -0.13,  0.44, 81.23,-55.75, 98.01,-14.94,-20.96,  7.31,-80.36,-89.06
Uptime 00:00:34, 24.22,  0.74, -0.58,  1.08,-21.09, 50.38, 72.69,-24.00, 30.97, 14.51, 13.96,1071.21; 32.79,  0.29,  0.00,  0.79,-89.03,120.87, 72.57,  0.06, 19.83, -4.18,-63.75,-79.62
Uptime 00:00:34, 24.27, -0.50,  0.13,  1.15,  1.18, 62.18, 32.33,  6.04,-23.34, 14.50, 22.07,1075.41; 32.79, -0.51, -0.28,  1.06, 24.45,-17.07, 21.15,-13.17,-25.05, -1.25,-64.15,-76.87
Uptime 00:00:34, 24.18,  0.14,  0.14,  0.71, 31.24,-23.37,101.82, 10.64, 10.71, 18.67, 18.23,1089.57; 32.88,  0.16,  0.27,  1.01, 23.80,-20.47,  1.25, 14.72,  8.66,  2.31,-65.83,-76.70
Uptime 00:00:34, 24.27, -0.30, -0.17,  1.17, -4.50,-43.08, 65.01, -8.15,-14.02, 17.57, 12.66,1098.02; 32.88, -0.16, -0.52,  1.09, -3.06,-86.41,-28.68,-25.29, -7.36,  1.37,-75.37,-80.43
Uptime 00:00:35, 24.22, -0.08,  0.36,  0.79, 30.59, 20.28, 23.02, 24.36, -5.30, 21.60, 15.09,1101.01; 32.79, -0.22,  0.08,  0.77, 40.76, 60.49, 30.15,  5.52,-15.52,  6.65,-65.85,-76.51
Uptime 00:00:35, 24.18,  0.03,  0.03,  1.10, 43.66, 88.90, 52.06,  1.38,  1.58, 26.84, 26.26,1107.88; 32.88, -0.19, -0.29,  1.06, 73.22, 30.37,  3.46,-15.06, -9.68, 15.69,-60.41,-76.05
Uptime 00:00:35, 24.22, -0.05,  0.11,  0.81,-52.69,-41.16, 18.18,  7.89, -3.37, 19.75, 20.56,1110.25; 32.88,  0.14, -0.05,  0.92,-43.17,-16.29, 36.27, -3.34,  8.65,  9.81,-61.45,-71.34
Uptime 00:00:35, 24.27, -0.03,  0.06,  1.04, 15.17, 22.35,-27.57,  3.44, -1.61, 21.36, 23.03,1106.66; 32.88, -0.07, -0.47,  0.91,-12.05, -7.77,-29.76,-27.34, -3.70,  7.53,-61.13,-75.21
Uptime 00:00:35, 24.32, -0.07,  0.30,  1.16,  8.79,-31.56, 34.69, 14.45, -3.11, 22.35, 18.55,1111.24; 32.88,  0.07,  0.08,  1.26, 21.78,-51.19, 38.10,  3.55,  3.02, 10.27,-66.59,-70.18
Uptime 00:00:35, 24.27,  0.12,  0.32,  0.89, 18.41, 13.44, 82.82, 19.63,  7.36, 24.64, 19.74,1122.01; 32.88,  0.11,  0.34,  1.02, -0.02, 12.83, 37.92, 18.17,  6.02, 10.42,-63.75,-65.25
Uptime 00:00:35, 24.22,  0.13, -0.14,  1.14,  5.87, 42.05, 26.30, -7.02,  6.65, 24.76, 24.57,1125.43; 33.07, -0.14, -0.38,  1.00,-23.84, 19.59,-70.92,-20.79, -7.36,  6.76,-59.83,-74.47
Uptime 00:00:35, 24.27, -0.19,  0.31,  0.93, -6.21, -5.88, 77.36, 17.93,-11.22, 23.82, 23.54,1135.64; 32.84, -0.14, -0.09,  0.91, 14.59, 21.48,-19.55, -5.43, -8.50,  8.40,-55.68,-77.05
Uptime 00:00:36, 24.27, -0.30, -0.10,  0.98, 27.81, -3.85, 23.68, -5.56,-17.00, 26.78, 22.92,1138.72; 32.93, -0.34, -0.21,  0.66, 47.64,-44.49, -3.91,-15.86,-25.95, 13.99,-59.72,-77.56
Uptime 00:00:36, 24.22,  0.31,  0.30,  1.03,-29.85, 27.86,-27.70, 15.75, 16.26, 22.63, 25.80,1135.00; 32.84, -0.33,  0.14,  1.03,-71.26,118.05, 75.72,  7.56,-17.79,  4.50,-42.67,-67.41
Uptime 00:00:36, 24.27, -0.27,  0.10,  1.02,-12.28, -5.42,  2.96,  5.48,-14.80, 20.73, 24.89,1135.39; 33.02, -0.10, -0.23,  0.96,-20.25,-77.54, 30.94,-13.15, -5.68,  1.57,-51.58,-63.39
Uptime 00:00:36, 24.32,  0.16,  0.19,  0.98, 30.01, 49.53, 44.27, 10.58,  8.91, 25.20, 31.93,1142.43; 32.98,  0.40, -0.12,  1.23, 38.42, 33.07,-25.33, -5.22, 18.11,  7.42,-45.76,-67.42
Uptime 00:00:36, 24.36, -0.30, -0.01,  1.04,-18.14,-21.46, 56.18, -0.29,-16.23, 22.32, 28.82,1149.90; 32.93,  0.06,  0.03,  0.89,-33.93,-69.57,-51.95,  1.61,  3.64,  2.88,-53.98,-74.33
Uptime 00:00:36, 24.22, -0.16, -0.25,  1.19, 22.41,-18.12, 11.94,-11.82, -7.71, 24.50, 26.08,1151.45; 32.98, -0.30, -0.45,  0.90, 16.91, 14.17,-24.66,-25.48,-16.73,  4.47,-50.76,-77.53
Uptime 00:00:36, 24.27,  0.15,  0.30,  1.20, 12.37,-33.71, 46.62, 13.83,  6.72, 25.87, 21.10,1157.56; 32.98, -0.19, -0.13,  0.75, 59.12,-14.98,  8.56, -9.31,-13.94, 11.78,-51.39,-76.41
Uptime 00:00:37, 24.32,  0.16, -0.14,  0.94,  1.78,-23.98,-25.59, -8.28,  9.46, 25.42, 17.36,1154.16; 32.98,  0.03, -0.01,  1.02,-73.61, 19.79, 45.61, -0.62,  1.82,  1.94,-47.82,-70.34
Uptime 00:00:37, 24.36,  0.07, -0.17,  1.17,  9.14, 25.42,  3.54, -8.21,  3.46, 25.92, 20.21,1154.62; 32.88, -0.13, -0.58,  1.08,  5.60, -8.18, -4.11,-28.10, -5.82,  2.06,-47.80,-70.88
Uptime 00:00:37, 24.32,  0.07,  0.20,  1.03,-13.05, 20.49, 41.75, 11.08,  3.62, 23.96, 22.34,1160.05; 33.07,  0.36, -0.13,  0.91, 54.97,-12.65,-36.62, -7.46, 21.48,  8.87,-48.88,-75.64
Uptime 00:00:37, 24.27, -0.38,  0.15,  1.07,-17.72, 56.08, 20.06,  7.75,-19.18, 21.35, 29.54,1162.70; 33.07, -0.50, -0.12,  0.87,  2.30,-14.82,-115.53, -6.94,-29.37,  8.85,-49.24,-90.89
Uptime 00:00:37, 24.22, -0.13, -0.12,  1.19, 17.93,-71.36, 28.23, -5.57, -6.43, 23.09, 19.98,1166.37; 33.07,  0.14, -0.46,  1.16, 12.06,-49.59,-19.15,-21.55,  6.41,  9.78,-54.70,-93.38
Uptime 00:00:37, 24.36, -0.22,  0.49,  0.91,  2.04, 15.18,-17.05, 27.42,-12.00, 23.44, 21.80,1164.10; 33.02, -0.24,  0.12,  0.77, 40.09, 33.24, 37.06,  8.69,-17.42, 14.98,-48.92,-88.45
Uptime 00:00:37, 24.36,  0.26, -0.48,  1.11,-19.08, 32.21,  8.27,-22.93, 12.00, 20.09, 25.23,1165.17; 32.98,  0.16, -0.56,  1.22,-70.27, 44.41, 21.84,-24.38,  6.96,  5.24,-42.42,-85.61
Uptime 00:00:37, 24.27,  0.04,  0.19,  1.12, -9.59, 32.92, 10.79,  9.39,  1.77, 18.65, 28.88,1166.58; 32.98, -0.04, -0.17,  0.86, 16.67,-54.12,-40.24,-11.12, -2.66,  7.04,-48.42,-90.84
Uptime 00:00:38, 24.36, -0.19, -0.05,  1.15, 34.34,-45.51, 14.11, -2.45, -9.32, 22.70, 22.56,1168.45; 33.02, -0.11, -0.22,  1.23, -7.39,-70.98,-18.94,-10.31, -5.15,  5.73,-56.60,-93.36
Uptime 00:00:38, 24.27,  0.06,  0.18,  1.27, -9.47, 49.33, 48.79,  7.85,  2.63, 21.20, 28.34,1174.80; 33.02, -0.13,  0.26,  0.96,-15.62, 38.72, 34.64, 15.16, -7.64,  3.93,-50.38,-88.86
Uptime 00:00:38, 24.36, -0.11,  0.08,  0.98, 14.24,-23.86, 38.49,  4.80, -6.10, 22.69, 24.86,1179.80; 33.12,  0.02, -0.16,  0.78,-11.79,-27.56,-26.13,-11.24,  1.62,  2.12,-52.92,-92.26
Uptime 00:00:38, 24.32, -0.04,  0.06,  1.01, 32.22, 66.00, 25.48,  3.66, -2.12, 26.51, 33.00,1183.19; 33.12, -0.14, -0.16,  0.98, 36.51, 59.93,-43.81, -9.10, -8.08,  6.66,-43.88,-98.08
Uptime 00:00:38, 24.27, -0.39,  0.27,  0.53, 32.16, -9.57, 19.20, 22.49,-32.85, 30.55, 31.77,1185.70; 33.12, -0.28,  0.27,  0.83, 21.38,-29.62,-32.69, 17.37,-17.81,  9.62,-46.45,-102.37
Uptime 00:00:38, 24.32,  0.12, -0.22,  1.24,-11.20,-32.26, 47.82, -9.85,  5.27, 28.32, 26.92,1191.92; 33.02, -0.13, -0.49,  1.22,-42.86,-10.76, 25.49,-21.92, -5.79,  3.53,-46.78,-99.05
Uptime 00:00:38, 24.36, -0.12,  0.12,  1.12,  0.16, 36.79, -9.59,  5.92, -6.33, 27.89, 31.31,1190.64; 33.02, -0.29, -0.08,  0.97,-30.75,-32.53, 11.98, -4.74,-16.38, -0.65,-49.76,-97.46
Uptime 00:00:39, 24.32,  0.11,  0.01,  0.88, 44.62, -5.68, 41.39,  0.57,  6.81, 33.07, 29.81,1196.07; 33.12,  0.39, -0.24,  0.68, 49.80,-29.45, -6.36,-16.88, 28.57,  5.42,-53.11,-98.29
Uptime 00:00:39, 24.27, -0.42,  0.27,  0.95,-13.00, 77.73, 80.00, 14.45,-22.79, 31.02, 39.73,1206.63; 33.16, -0.52, -0.07,  0.96,-20.34, -0.18,-47.55, -3.47,-28.32,  2.61,-51.51,-104.57
Uptime 00:00:39, 24.41,  0.23,  0.16,  0.97, -6.34,-18.18, 29.85,  9.00, 12.93, 29.77, 36.36,1210.51; 33.16,  0.30, -0.11,  1.03, -3.65,-12.81,-10.48, -5.67, 15.98,  1.98,-52.43,-105.93
Uptime 00:00:39, 24.46, -0.37,  0.18,  1.03, 38.24, 19.89,  4.44,  9.24,-19.56, 34.23, 38.56,1211.08; 32.93, -0.32, -0.19,  0.98, 39.48,-11.17,-24.60,-10.71,-17.74,  6.75,-52.45,-109.13
Uptime 00:00:39, 24.36, -0.11,  0.21,  0.87, -4.36,-64.32, -1.34, 13.43, -6.99, 33.25, 29.54,1210.90; 33.07,  0.44,  0.22,  1.36, -8.14,-59.54, 24.77,  8.71, 17.52,  5.73,-59.51,-105.83
Uptime 00:00:39, 24.41,  0.27, -0.25,  0.99, -6.04, 51.99, 11.56,-13.81, 14.92, 31.54, 35.28,1212.41; 33.07,  0.06, -0.08,  0.95,-52.54,  1.48, -5.93, -4.66,  3.44, -1.17,-58.20,-106.61
Uptime 00:00:39, 24.36, -0.09, -0.17,  1.16, 20.76, 15.88, -1.16, -8.28, -4.38, 33.39, 36.68,1212.26; 33.07,  0.09, -0.52,  1.03, 22.76,-25.86, 13.34,-26.61,  4.67,  1.22,-60.42,-104.87
Uptime 00:00:39, 24.22,  0.10,  0.40,  0.85, -2.30, 59.07, 58.03, 25.21,  5.96, 32.92, 43.59,1220.03; 33.16, -0.09,  0.22,  1.07, 33.80, 42.25,-42.75, 11.52, -4.48,  5.83,-53.62,-110.56
Uptime 00:00:40, 24.36, -0.51, -0.07,  1.27,-23.56,-38.56, 36.91, -2.89,-21.75, 29.20, 38.24,1224.83; 33.26,  0.07,  0.09,  0.91,  1.80,-48.87,-31.67,  5.91,  4.58,  6.06,-58.91,-114.71
Uptime 00:00:40, 24.32,  0.09,  0.09,  1.13, 30.68,-10.95, 55.17,  4.52,  4.64, 32.62, 35.98,1232.00; 33.16, -0.03, -0.34,  1.00, 52.93, 10.37,-26.24,-18.84, -1.71, 12.31,-56.38,-118.12
Uptime 00:00:40, 24.36, -0.30,  0.38,  0.83, 16.60, 17.50, 18.62, 23.34,-18.40, 34.60, 37.91,1234.48; 33.16, -0.25,  0.27,  1.15, 15.00,  5.64, 48.85, 12.90,-12.12, 14.28,-54.28,-111.62
Uptime 00:00:40, 24.41,  0.23, -0.31,  0.98, -2.28, 29.60, 42.35,-16.99, 12.60, 33.27, 40.70,1240.03; 33.12,  0.12, -0.26,  0.88,-50.63, 33.74, 34.60,-16.09,  7.54,  7.17,-49.01,-107.09
Uptime 00:00:40, 24.46, -0.17, -0.01,  0.93, 13.00, 40.69, 26.08, -0.62,-10.37, 34.36, 45.64,1243.65; 33.21, -0.05, -0.21,  1.07, -3.18,-15.34, 20.57,-11.04, -2.61,  6.37,-50.07,-104.23
Uptime 00:00:40, 24.41, -0.06,  0.40,  1.14, -5.01, 25.67, 93.10, 19.15, -3.02, 33.42, 48.08,1255.85; 33.21, -0.44,  0.27,  0.91,  6.48,  9.21,-39.87, 14.89,-24.69,  7.37,-47.39,-109.45
Uptime 00:00:40, 24.36, -0.23, -0.36,  1.05, 27.12,-79.94, 16.85,-18.37,-11.59, 35.86, 37.09,1258.06; 33.12, -0.01, -0.51,  1.09, -8.60,-70.09,-14.97,-25.01, -0.28,  5.62,-55.43,-111.41
Uptime 00:00:40, 24.41, -0.10,  0.29,  0.93, 23.79, 42.11, 60.95, 16.96, -6.09, 38.56, 41.92,1266.10; 33.12, -0.14, -0.01,  0.86, 40.77, 32.70,  9.98, -0.68, -8.93, 10.77,-49.92,-110.09
Uptime 00:00:41, 24.36, -0.04,  0.14,  1.20, 31.99,-13.10, 23.72,  6.65, -1.72, 42.00, 39.44,1269.19; 33.21, -0.10,  0.35,  1.30,-26.43, 14.17, 23.60, 15.03, -4.35,  7.49,-47.03,-107.03
Uptime 00:00:41, 24.32,  0.12, -0.32,  0.99, -7.47, 52.29, 46.20,-17.54,  6.78, 39.85, 45.23,1275.24; 33.21, -0.15, -0.11,  0.84,-26.95, 36.70,  8.53, -7.47, -9.83,  3.73,-41.18,-105.91
Uptime 00:00:41, 24.32, -0.03,  0.23,  1.01, 22.66, 15.38, -6.26, 12.94, -1.71, 42.27, 46.37,1274.40; 33.31,  0.08, -0.03,  0.90, -0.94,-37.28,-15.29, -1.75,  4.78,  3.50,-45.31,-107.94
Uptime 00:00:41, 24.36, -0.17, -0.10,  1.07, 31.32,-83.54, 61.98, -5.15, -9.09, 45.31, 34.98,1282.46; 33.21,  0.21, -0.29,  1.10, 25.57,-81.85, -8.36,-14.46, 10.38,  6.40,-55.04,-109.03
Uptime 00:00:41, 24.55, -0.08,  0.33,  0.76,-12.40, 79.99, 25.07, 23.55, -5.45, 43.29, 44.58,1285.72; 33.31, -0.46, -0.08,  0.81, -6.51, 25.30,-13.46, -4.96,-29.24,  5.34,-50.13,-110.78
Uptime 00:00:41, 24.46, -0.02, -0.03,  0.95, -7.72,-30.70, 45.17, -1.54, -0.91, 41.39, 39.70,1291.73; 33.26,  0.23, -0.22,  0.88,-31.56,-19.82,-18.68,-13.37, 14.22,  0.85,-51.99,-113.26
Uptime 00:00:41, 24.41, -0.04,  0.15,  1.29, 37.21, 34.29, 64.21,  6.81, -1.98, 45.44, 43.32,1300.08; 33.26, -0.26, -0.17,  1.32, 29.20, 13.68,-10.95, -7.19,-11.21,  4.41,-48.98,-114.69
Uptime 00:00:42, 24.55,  0.09,  0.38,  0.71,-14.62,-42.87,  5.74, 28.09,  6.36, 43.20, 36.78,1300.83; 33.26, -0.05, -0.02,  0.72, 31.22,-19.04, 21.67, -1.93, -4.33,  8.32,-50.38,-111.83
Uptime 00:00:42, 24.41, -0.10, -0.09,  1.10,-24.54, 32.69,-12.78, -4.66, -5.01, 39.12, 40.31,1299.17; 33.26, -0.04, -0.28,  1.02,-62.36, -7.54,  8.86,-15.26, -2.21, -0.09,-50.29,-110.67
Uptime 00:00:42, 24.46,  0.07,  0.28,  0.99, -8.82,-37.59, 13.86, 15.94,  3.61, 37.52, 34.60,1300.99; 33.26, -0.11,  0.10,  1.05,-15.38,-26.58, 30.86,  5.53, -6.05, -1.96,-52.58,-106.63
Uptime 00:00:42, 24.51, -0.05,  0.08,  1.03,  6.10, 25.28,-14.55,  4.39, -2.67, 37.65, 37.23,1299.07; 33.35,  0.18, -0.05,  0.92, 12.44,-73.77, -7.81, -2.98, 11.27, -0.37,-61.29,-107.66
Uptime 00:00:42, 24.55,  0.22,  0.25,  0.84, 22.74, 53.77, 49.28, 16.23, 13.92, 40.12, 43.06,1305.48; 33.35, -0.00,  0.25,  1.20, 23.31, 68.52,-14.82, 11.69, -0.17,  2.84,-51.33,-109.59
Uptime 00:00:42, 24.51, -0.23, -0.05,  1.05,-34.97,-12.93, 18.24, -2.47,-12.56, 34.81, 40.81,1307.85; 33.26,  0.18, -0.07,  0.95,-39.36,-45.19,-61.17, -3.91, 10.82, -2.31,-56.28,-117.54
Uptime 00:00:42, 24.46, -0.14,  0.06,  1.09, 35.26, -0.30,-32.47,  3.01, -7.54, 38.74, 40.10,1303.56; 33.35, -0.20, -0.35,  0.98, 40.21, -4.41,-58.89,-19.38,-10.92,  2.55,-55.51,-125.31
Uptime 00:00:42, 24.46, -0.05,  0.41,  1.14, -3.52,  9.60, 45.95, 19.97, -2.14, 37.91, 40.56,1309.53; 33.31,  0.01, -0.13,  0.64, 79.58, 13.71,  8.44,-11.71,  1.07, 12.41,-52.67,-124.22
Uptime 00:00:43, 24.46,  0.14, -0.01,  0.83,-18.88, 13.34,-24.52, -0.50,  9.65, 34.72, 41.27,1306.32; 33.26, -0.25,  0.02,  0.72,-102.51, 32.48, 25.49,  1.27,-19.34, -0.98,-47.06,-120.88
Uptime 00:00:43, 24.46,  0.04, -0.25,  1.17, 16.74,  5.01, 22.72,-12.03,  1.86, 35.97, 41.06,1309.34; 33.31, -0.17, -0.79,  1.18, 30.70,-20.24,-25.14,-33.67, -6.97,  2.37,-48.62,-124.22
Uptime 00:00:43, 24.51,  0.12,  0.43,  1.32, -2.54, -8.11, 64.55, 17.91,  4.77, 35.28, 39.11,1317.73; 33.35,  0.27, -0.12,  0.70, 71.43,-45.45,-61.06, -9.29, 21.02, 11.24,-53.86,-132.16
Uptime 00:00:43, 24.46, -0.44,  0.15,  0.97,-14.71,-19.86, 12.06,  8.09,-24.11, 32.84, 36.25,1319.33; 33.40, -0.14,  0.01,  0.94,-50.77,-34.64,-54.78,  0.33, -8.77,  4.45,-57.09,-139.39
Uptime 00:00:43, 24.51,  0.11,  0.04,  1.22, 10.41,-47.08, 57.74,  1.92,  4.93, 33.55, 29.38,1326.89; 33.31,  0.20, -0.48,  1.17, 13.29, -0.59,  5.92,-21.98,  8.92,  5.63,-56.20,-138.61
Uptime 00:00:43, 24.46, -0.23,  0.45,  0.92, 18.08, 54.57,-27.92, 25.43,-12.69, 35.70, 36.00,1323.26; 33.31, -0.19,  0.04,  0.63, 34.28, 15.57, 41.86,  3.68,-16.77,  9.96,-52.76,-133.17
Uptime 00:00:43, 24.51,  0.38, -0.01,  1.30, 16.10, -6.03,  1.17, -0.35, 16.46, 37.07, 34.16,1323.42; 33.31,  0.30, -0.28,  1.30,-76.51,  6.35, -1.70,-11.74, 12.90, -0.45,-51.13,-133.40
Uptime 00:00:44, 24.55, -0.06,  0.06,  0.84, -9.82, 30.93, 11.04,  3.97, -3.75, 35.16, 37.49,1324.85; 33.40,  0.00, -0.10,  1.02, -2.78, -2.50,-41.01, -5.68,  0.05, -0.91,-50.43,-138.73
Uptime 00:00:44, 24.51, -0.34, -0.08,  1.17, 24.82,-17.40,-56.57, -3.91,-16.20, 37.54, 34.85,1317.50; 33.31, -0.14, -0.20,  0.98, 30.83,-69.72,-19.07,-11.26, -8.09,  2.81,-58.14,-141.21
Uptime 00:00:44, 24.55,  0.26,  0.22,  0.78, -5.59, -0.14, 42.43, 14.76, 17.50, 36.36, 33.79,1323.10; 33.40,  0.22,  0.22,  1.27, 27.02, 48.86,-39.38,  9.48,  9.55,  6.44,-50.85,-146.41
Uptime 00:00:44, 24.51, -0.43,  0.07,  0.81,-34.85,-47.97, 21.46,  4.17,-27.63, 31.28, 27.55,1325.89; 33.35, -0.19,  0.08,  0.86,-56.56,-70.98,-53.93,  4.90,-12.30, -0.79,-58.63,-153.42
Uptime 00:00:44, 24.46,  0.23, -0.04,  1.44, 66.33, 35.47, 37.33, -1.51,  9.04, 39.14, 31.37,1330.78; 33.31,  0.14, -0.72,  1.37, 26.97, 68.28,-43.04,-27.44,  5.35,  2.14,-48.80,-159.06
Uptime 00:00:44, 24.46, -0.31,  0.38,  1.04,  1.46, 56.58, 45.08, 19.30,-15.91, 38.93, 38.44,1336.77; 33.26, -0.07,  0.05,  0.05, 78.33, 23.96, -7.40, 28.90,-44.38, 12.88,-43.81,-160.04
Uptime 00:00:44, 24.60,  0.13, -0.30,  1.45,  1.72,-85.05, -2.29,-11.68,  5.03, 38.14, 26.73,1336.48; 33.35,  0.23, -0.37,  1.29,-87.76,-35.74, 39.34,-15.61,  9.70,  1.13,-47.68,-154.93
Uptime 00:00:44, 24.51, -0.22,  0.08,  1.18,-15.76, 11.09, 24.90,  3.59,-10.57, 35.39, 27.85,1339.79; 33.35, -0.42, -0.12,  0.87,-26.71,-38.04, 29.93, -7.17,-25.34, -2.52,-51.18,-150.95
Uptime 00:00:45, 24.55,  0.19, -0.30,  1.30, 14.47, -2.40, 37.17,-12.99,  8.01, 36.28, 26.83,1344.66; 33.45,  0.36, -0.63,  0.82, 37.48, -2.91, 10.38,-35.30, 19.00,  1.64,-50.91,-149.59
Uptime 00:00:45, 24.46, -0.47,  0.27,  0.84,-32.21, 19.24,100.91, 15.77,-28.05, 31.77, 29.30,1357.78; 33.45, -0.32,  0.12,  0.95,-27.82,-28.40,-84.69,  6.88,-18.40, -1.80,-53.14,-160.60
Uptime 00:00:45, 24.60,  0.17, -0.01,  1.19, -6.28,  5.89,-14.12, -0.51,  7.94, 30.31, 29.32,1355.91; 33.35,  0.02, -0.35,  0.93, 24.31,-16.18,-53.98,-20.72,  1.19,  0.97,-54.20,-167.72
Uptime 00:00:45, 24.55, -0.25,  0.20,  1.24,-10.02,-74.88, 57.27,  9.14,-11.30, 28.60, 19.35,1363.41; 33.35, -0.06, -0.18,  0.78, 32.90,-49.33, 19.96,-13.03, -4.48,  4.91,-59.35,-165.11
Uptime 00:00:45, 24.60,  0.31, -0.13,  1.12,-38.88, 41.65,-85.94, -6.28, 15.32, 22.91, 24.00,1352.16; 33.45,  0.03,  0.07,  0.92,-73.17, 17.99, 43.73,  4.35,  1.80, -4.50,-55.89,-159.38
Uptime 00:00:45, 24.55,  0.02, -0.37,  1.48, 31.09, 23.99,  7.62,-14.23,  0.80, 26.19, 26.61,1353.16; 33.45, -0.08, -0.82,  1.20,  2.56,-18.32,-43.40,-34.21, -3.15, -4.76,-57.08,-165.11
Uptime 00:00:45, 24.51, -0.07,  0.17,  0.89, 13.21, 29.02, 41.16, 10.67, -4.66, 27.56, 29.87,1358.51; 33.45,  0.66,  0.02,  0.95, 61.26,-11.13,-40.54,  1.12, 34.85,  3.16,-58.06,-170.38
Uptime 00:00:45, 24.55, -0.68,  0.08,  0.99,-23.59,  9.94, 24.09,  3.85,-34.17, 24.06, 31.23,1361.67; 33.45, -0.32,  0.16,  0.85,-33.91,-45.34,-86.49, 10.22,-20.27, -1.05,-62.31,-181.71
Uptime 00:00:46, 24.60,  0.14, -0.15,  1.10, 42.15,-55.79, 54.15, -7.77,  7.10, 28.92, 23.19,1368.87; 33.40,  0.14, -0.85,  1.24, 48.02,-40.12,-15.36,-34.16,  5.43,  4.55,-66.40,-183.75
Uptime 00:00:46, 24.65, -0.14,  0.55,  0.81, -0.25, 99.80,  7.53, 33.48, -8.35, 28.98, 35.61,1369.85; 33.59, -0.20,  0.22,  0.86, 35.00, 39.09, 55.76, 14.25,-12.94,  9.20,-59.84,-176.50
Uptime 00:00:46, 24.60,  0.15, -0.29,  1.23,-10.25,  1.38, 15.95,-13.37,  6.62, 26.73, 34.95,1372.07; 33.54,  0.13, -0.59,  0.92,-85.36,  2.72, 55.76,-32.74,  6.56, -3.27,-58.40,-168.75
Uptime 00:00:46, 24.60, -0.02,  0.16,  1.16, -0.86, 19.07, 14.73,  7.90, -0.84, 26.24, 36.72,1374.00; 33.49, -0.08, -0.21,  0.95, 24.68,-50.32,-12.42,-12.19, -4.99, -0.28,-63.59,-170.38
Uptime 00:00:46, 24.65,  0.18,  0.38,  0.88, 11.90,  5.09, 94.12, 23.06, 10.67, 27.70, 36.42,1386.23; 33.49, -0.11,  0.37,  1.00,  5.52, 11.28,-55.17, 20.10, -5.69,  0.83,-60.77,-177.55
Uptime 00:00:46, 24.55, -0.15, -0.44,  1.25, 30.13,-86.43, 21.01,-19.33, -6.43, 30.68, 24.55,1389.02; 33.49,  0.14, -0.63,  1.18,-25.55,-73.66,-21.58,-28.01,  6.01, -3.07,-69.28,-180.42
Uptime 00:00:46, 24.74, -0.05,  0.34,  1.00, 25.66, 50.54, 53.56, 19.01, -2.54, 33.74, 30.60,1396.04; 33.49, -0.18,  0.12,  0.78, 40.88, 47.91, 47.69,  8.86,-13.01,  2.41,-61.48,-174.17
Uptime 00:00:47, 24.69,  0.42, -0.28,  1.20,  1.46,-12.81,  5.82,-12.29, 18.96, 33.01, 27.98,1396.80; 33.49,  0.20, -0.04,  1.03,-80.85, -1.11, 15.61, -1.97, 11.02, -7.97,-60.61,-172.14
Uptime 00:00:47, 24.65, -0.10,  0.25,  1.03,  3.67, 46.95, 37.40, 13.81, -5.58, 33.10, 33.65,1401.77; 33.54, -0.19, -0.11,  1.19,  1.64,-12.50, -9.50, -5.38, -9.11, -7.71,-60.85,-173.40
Uptime 00:00:47, 24.65, -0.09, -0.05,  1.17,  7.81,-22.00, -5.56, -2.25, -4.23, 33.39, 30.26,1401.05; 33.49, -0.03, -0.18,  0.89, 38.02,-65.16, -2.88,-11.48, -2.18, -2.94,-67.89,-173.78
Uptime 00:00:47, 24.65,  0.26,  0.35,  1.02,  1.76,-33.24, 67.56, 18.28, 13.59, 33.31, 25.15,1409.83; 33.54,  0.13,  0.36,  1.18, 37.32, 58.73, 33.31, 17.09,  5.97,  2.22,-59.17,-169.45
Uptime 00:00:47, 24.51, -0.23,  0.24,  0.97, 22.92, -6.69, 38.04, 13.54,-13.16, 35.88, 24.04,1414.85; 33.45, -0.11, -0.06,  0.87,-38.54,-74.09,-54.60, -4.18, -6.99, -2.90,-67.43,-176.66
Uptime 00:00:47, 24.65,  0.43, -0.19,  1.06, 37.35, 38.86,  6.20, -9.59, 21.73, 39.73, 28.08,1415.66; 33.54,  0.15, -0.46,  1.18,  2.86, 73.54,-31.58,-21.22,  6.52, -2.90,-56.84,-180.76
Uptime 00:00:47, 24.69, -0.06,  0.56,  1.01,-25.63,-12.99, 30.47, 28.77, -3.08, 36.22, 25.91,1419.65; 33.45, -0.08,  0.05,  1.14, 12.67,-20.78,-19.95,  2.45, -3.85, -1.16,-58.29,-183.37
Uptime 00:00:47, 24.65, -0.11, -0.24,  1.07,-29.21, 75.05,-50.75,-12.40, -5.63, 31.44, 35.29,1412.90; 33.45, -0.40,  0.08,  0.88,-56.80, 15.56,-56.95,  4.79,-24.41, -8.45,-54.61,-190.95
Uptime 00:00:48, 24.60, -0.01,  0.08,  1.20,  1.31,-94.15, 17.10,  3.83, -0.24, 31.06, 22.59,1415.12; 33.45, -0.04, -0.17,  1.25, 15.25,-45.34, 30.48, -7.62, -1.59, -6.49,-59.26,-186.99
Uptime 00:00:48, 24.65,  0.13,  0.12,  0.99, -3.98, 15.45, 10.58,  6.95,  7.29, 30.06, 24.01,1416.53; 33.54,  0.22,  0.02,  0.80, -4.37,-95.95, 12.42,  1.08, 15.65, -6.91,-70.90,-185.33
Uptime 00:00:48, 24.65, -0.07,  0.17,  1.09,  5.03, 53.30, 61.05,  9.13, -3.42, 30.28, 30.39,1424.47; 33.45, -0.22,  0.07,  0.88, -3.82,101.77,-12.68,  4.22,-13.83, -7.17,-56.24,-186.98
Uptime 00:00:48, 24.65, -0.25, -0.07,  0.91,-29.41,-13.72, 27.05, -4.27,-15.06, 25.84, 28.33,1427.98; 33.54,  0.09, -0.23,  0.97,-13.50,-70.58,-59.14,-13.31,  5.39, -9.02,-64.21,-194.67
Uptime 00:00:48, 24.65, -0.18, -0.09,  1.10, 18.68, 32.29,-10.43, -4.75, -9.37, 27.65, 32.13,1426.61; 33.59, -0.14,  0.02,  0.87, 32.18, 24.70,-69.59,  1.19, -9.30, -4.65,-59.55,-203.86
Uptime 00:00:48, 24.60, -0.28,  0.04,  1.15, 10.63,-66.11, 55.25,  1.71,-13.54, 28.48, 23.34,1433.79; 33.45, -0.27, -0.36,  0.76, 56.48,-103.23,-16.72,-24.29,-17.52,  2.15,-71.16,-206.03
Uptime 00:00:48, 24.65,  0.30,  0.11,  0.99,-34.17, 37.56,-36.23,  5.84, 16.78, 23.64, 27.35,1429.04; 33.54, -0.16, -0.15,  0.98,-77.53, 83.07, 64.42, -8.30, -8.90, -8.01,-58.89,-197.59
Uptime 00:00:48, 24.74, -0.00, -0.15,  1.28, 21.17,  0.75, 40.06, -6.71, -0.13, 25.77, 26.91,1434.33; 33.59,  0.12, -0.49,  1.14, -1.58,-10.24, 13.40,-23.38,  5.48, -8.52,-59.15,-195.82
Uptime 00:00:49, 24.74,  0.11,  0.09,  1.11, 16.92, 32.29, 36.15,  4.64,  5.60, 27.51, 30.37,1439.03; 33.59,  0.23, -0.24,  0.98,  9.12,-30.99, 24.18,-13.44, 12.61, -7.46,-62.17,-192.68
Uptime 00:00:49, 24.69, -0.25,  0.18,  0.81,-26.88, 31.59, 41.31, 12.00,-16.80, 23.77, 34.12,1444.40; 33.49, -0.30, -0.05,  0.89, -5.87,  1.15,-37.59, -3.32,-18.64, -8.12,-60.40,-197.57
Uptime 00:00:49, 24.74, -0.22, -0.20,  1.17, 25.79,-41.22,-20.05, -9.43,-10.59, 26.45, 28.32,1441.76; 33.49, -0.02, -0.21,  1.08,  2.04,  3.41,-57.14,-10.86, -0.99, -7.91,-58.73,-205.11
Uptime 00:00:49, 24.69, -0.42, -0.08,  1.00, 12.99,-12.50, 68.33, -4.32,-22.43, 27.48, 26.61,1450.64; 33.59, -0.17, -0.12,  0.96, 39.46,-36.03,-37.64, -7.03, -9.74, -2.87,-61.96,-210.00
Uptime 00:00:49, 24.74, -0.29, -0.04,  0.75, -0.69,-28.59,-10.02, -2.62,-21.23, 26.79, 22.78,1449.31; 33.59, -0.14,  0.31,  1.02, -6.42,-51.27,  8.86, 16.85, -7.41, -3.31,-67.25,-208.82
Uptime 00:00:49, 24.69,  0.20, -0.39,  1.00,  8.51,  8.54, 77.10,-21.12, 10.33, 26.93, 23.21,1459.41; 33.49, -0.03, -0.45,  1.07,-41.10,  6.63, 13.80,-22.56, -1.59, -8.97,-65.02,-207.02
Uptime 00:00:49, 24.65,  0.16, -0.15,  0.87, -2.31, 23.99, 95.20, -9.65, 10.15, 25.90, 25.60,1471.78; 33.59,  0.36, -0.10,  0.99, -5.52,-10.21, 30.25, -5.17, 19.94, -9.60,-65.42,-203.08
Uptime 00:00:50, 24.60, -0.27, -0.11,  1.06,  5.02,-20.98,139.25, -5.67,-14.20, 25.92, 22.64,1490.30; 33.68, -0.33, -0.07,  1.02,-11.21,  3.13, 38.83, -3.86,-17.78,-10.94,-63.35,-197.92
Uptime 00:00:50, 24.79,  0.02, -0.32,  0.93, -5.01,-40.85,111.25,-18.92,  0.93, 24.38, 16.92,1504.88; 33.59,  0.06, -0.33,  0.89, 17.48,-30.64, 31.06,-20.10,  3.37, -8.88,-66.08,-193.85
Uptime 00:00:50, 24.74,  0.11, -0.30,  0.96,-12.31,-26.72, 81.43,-17.47,  6.22, 21.98, 13.05,1515.46; 33.73,  0.18, -0.16,  1.06, 10.88,-38.87, 34.97, -8.29,  9.50, -7.49,-69.90,-189.30
Uptime 00:00:50, 24.69,  0.09, -0.13,  0.88,  1.09, -8.12, 74.84, -8.19,  5.69, 21.51, 11.63,1525.34; 33.64,  0.12,  0.08,  1.07,  1.72, -5.75, 34.93,  4.22,  6.65, -7.03,-69.38,-184.69
Uptime 00:00:50, 24.74,  0.21, -0.58,  0.82,  1.11,-61.39, 75.28,-34.34, 11.94, 20.54,  3.28,1535.20; 33.64,  0.17, -0.13,  0.85, 38.45, 23.54, 63.43, -8.19, 10.83, -2.12,-65.19,-176.38
Uptime 00:00:50, 24.60,  0.17, -0.41,  0.72, 12.50,-11.46, 80.12,-29.02, 11.53, 21.15,  1.51,1545.70; 33.64,  0.38, -0.09,  0.88, 11.41,  2.28, 50.24, -5.45, 23.30, -0.72,-64.06,-169.80
Uptime 00:00:50, 24.74,  0.07, -0.16,  0.90, 38.41, 17.71, 74.64, -9.89,  4.58, 25.54,  3.69,1555.63; 33.45, -0.45, -0.16,  0.90,  7.34, 81.71, -5.11, -8.99,-26.25,  0.07,-51.60,-170.48
Uptime 00:00:50, 24.69,  0.19, -0.16,  1.09, 19.44, 22.55, 53.63, -8.11,  9.53, 27.36,  6.32,1562.65; 33.64,  0.04,  0.14,  1.08, -3.98, 21.36, 19.46,  7.20,  2.24, -0.29,-47.87,-167.93
Uptime 00:00:51, 24.74,  0.14, -0.25,  0.71,  2.33, 23.68, 51.69,-19.14, 10.85, 26.74,  9.09,1569.58; 33.64,  0.04,  0.21,  0.87,-28.60, 32.96,  6.56, 13.27,  2.29, -3.75,-42.66,-167.06
Uptime 00:00:51, 24.69, -0.11,  0.02,  0.50, -6.37,-11.86, 24.49,  1.99,-12.32, 25.43,  7.64,1572.76; 33.64, -0.01,  0.23,  0.99,-15.87,-25.74, 28.48, 13.30, -0.65, -5.45,-45.10,-163.33
Uptime 00:00:51, 24.74, -0.07, -0.10,  1.27,-10.98, -3.80,  4.59, -4.55, -2.98, 23.43,  7.07,1573.36; 33.64, -0.42, -0.07,  1.05, 18.73, -6.09,  0.15, -3.42,-21.87, -3.02,-44.54,-163.31
Uptime 00:00:51, 24.79,  0.25, -0.20,  0.97,-21.06,-22.88, 15.04,-11.37, 14.07, 19.99,  3.66,1575.36; 33.54, -0.00,  0.00,  0.82, -1.56,-26.21, 43.12,  0.06, -0.10, -3.16,-47.06,-157.57
Uptime 00:00:51, 24.74,  0.49, -0.05,  0.73,-22.34, 23.38,-12.96, -3.17, 33.71, 16.68,  5.89,1573.68; 33.68,  0.14,  0.49,  0.74, 11.06,-56.90,-28.11, 33.16,  8.74, -1.03,-53.55,-161.23
Uptime 00:00:51, 24.79, -0.18, -0.28,  0.79, 16.53, 71.53, -4.58,-19.13,-12.15, 18.07, 15.13,1573.08; 33.59,  0.14, -0.03,  0.66,  2.90, 70.37,-55.49, -2.38, 11.72, -0.69,-43.74,-168.44
Uptime 00:00:51, 24.74,  0.12, -0.23,  1.16, -2.57,-62.84, 18.20,-11.12,  5.56, 17.15,  6.59,1575.48; 33.73,  0.08,  0.35,  1.13, 19.41,-35.34,-10.04, 17.18,  3.80,  2.18,-47.52,-169.77
Uptime 00:00:52, 24.79,  0.31, -0.43,  0.76,-13.47, 57.25, -0.23,-27.52, 19.37, 14.53, 13.42,1575.45; 33.68,  0.35,  0.06,  0.88,-19.52,-33.65,-42.66,  3.88, 21.90, -0.29,-51.32,-175.36
Uptime 00:00:52, 24.88, -0.15, -0.25,  0.95, 11.98,  1.86, -9.92,-14.59, -8.93, 15.47, 13.57,1574.16; 33.68, -0.14,  0.01,  0.90,  7.32,-23.88,-39.35,  0.74, -9.06,  0.67,-53.16,-180.47
Uptime 00:00:52, 24.84,  0.10, -0.26,  0.94, 14.70, 52.55,-53.02,-15.22,  5.68, 16.86, 20.34,1566.79; 33.59,  0.07,  0.12,  0.98, 23.35,-26.55,-45.85,  7.20,  3.83,  3.98,-55.79,-186.84
Uptime 00:00:52, 24.84, -0.11, -0.16,  0.86,  1.17, 58.72,-66.23,-10.62, -7.06, 16.46, 27.55,1558.18; 33.64, -0.08,  0.11,  0.93, -9.33, -2.03,-62.54,  6.64, -5.15,  2.84,-54.83,-194.97
Uptime 00:00:52, 24.74, -0.50, -0.39,  0.94, 62.28, 54.69,  0.73,-19.80,-26.32, 23.85, 34.66,1558.28; 33.59,  0.03,  0.07,  1.00,-25.53, 10.09,-67.30,  4.15,  1.82, -0.46,-52.45,-203.93
Uptime 00:00:52, 24.79,  0.17, -0.18,  1.27,  8.79, 47.53,-23.19, -7.95,  7.43, 24.34, 39.87,1555.26; 33.68,  0.09,  0.15,  1.01,-23.29, -5.78,-40.75,  8.36,  5.29, -3.25,-52.25,-209.22
Uptime 00:00:52, 24.74, -0.64,  0.36,  1.03, 38.85, 12.87, 11.01, 16.59,-30.12, 29.13, 41.32,1556.69; 33.68,  0.01,  0.16,  0.96, -4.95,  0.61,-42.60,  9.60,  0.78, -3.62,-51.14,-214.76
Uptime 00:00:52, 24.74, -0.34,  0.27,  0.94,-16.30, 39.76, 32.47, 14.97,-19.03, 26.72, 46.05,1561.01; 33.68, -0.29,  0.15,  0.83,-18.88, -4.90,-21.27, 10.02,-18.97, -5.81,-50.37,-217.59
Uptime 00:00:53, 24.84, -0.03,  0.04,  0.89, 53.20,-31.51, 26.37,  2.35, -2.05, 33.01, 41.16,1564.44; 33.73,  0.16, -0.15,  0.94, -9.14, 10.72,-45.41, -9.09,  9.64, -7.04,-48.19,-223.50
Uptime 00:00:53, 24.88, -0.34,  0.28,  1.32, 16.36, 18.92, 29.63, 11.68,-14.03, 34.67, 43.03,1568.29; 33.73, -0.23,  0.12,  1.38, 21.69, -0.18,-26.01,  4.97, -9.48, -4.04,-47.06,-226.88
Uptime 00:00:53, 24.84, -0.33,  0.12,  0.22, 14.08,-19.54,-18.54, 16.19,-53.01, 36.14, 40.68,1565.83; 33.64, -0.24,  0.17,  0.74,-10.10,-40.62, -8.34, 12.45,-17.46, -5.02,-51.07,-227.99
Uptime 00:00:53, 24.79, -0.29,  0.27,  1.48, 43.61,-98.58,  7.63, 10.29,-10.87, 41.22, 27.43,1566.83; 33.73, -0.13, -0.25,  1.64,  5.00,-86.33, 32.59, -8.65, -4.61, -4.45,-61.04,-223.72
Uptime 00:00:53, 24.74,  0.15,  0.15,  0.44, -2.25,-19.07,-23.80, 17.38, 17.55, 40.46, 24.10,1563.73; 33.73,  0.23, -0.23, -0.50, 44.12,-104.18, -9.40,-22.79, 22.42,-10.44,-76.24,-224.94
Uptime 00:00:53, 24.79,  0.14, -0.17,  1.37, 39.09, 62.78, 61.91, -7.20,  5.65, 44.56, 31.62,1571.90; 33.64, -0.73, -0.95,  1.45,-60.42, 69.31,-145.18,-30.39,-22.94,-18.66,-65.29,-244.10
Uptime 00:00:53, 24.84, -0.14,  0.16,  0.82,-42.14, 12.15, 24.11, 11.17, -9.67, 38.48, 32.75,1575.06; 33.64,  0.19, -0.07,  0.71, 45.95, 30.80,-59.00, -5.05, 14.74,-12.49,-60.33,-251.83
Uptime 00:00:53, 24.84, -0.66, -0.32,  1.05, 29.90, 17.34,-25.42,-14.52,-31.17, 41.32, 34.97,1571.68; 33.73, -0.26, -0.57,  0.90, 34.91,-16.06,-35.50,-31.41,-13.72, -8.31,-60.94,-256.55
Uptime 00:00:54, 24.84,  0.17,  0.11,  1.12,-49.81,-46.23,-16.35,  5.67,  8.58, 34.26, 28.21,1569.56; 33.64, -0.28, -0.09,  1.26,-28.49, 14.23, 79.28, -4.00,-12.64,-11.86,-57.66,-246.25
Uptime 00:00:54, 24.88,  0.44, -0.08,  0.83, 23.24,-13.42, 29.43, -4.87, 28.10, 36.46, 25.36,1573.41; 33.64,  0.29, -0.61,  0.80, 33.02,-69.62,  2.12,-35.63, 15.94, -8.09,-65.76,-245.97
Uptime 00:00:54, 24.88, -0.12,  0.02,  0.82, 29.83, 84.57, 67.94,  1.40, -8.10, 39.65, 36.04,1582.45; 33.73, -0.19,  0.09,  1.30,  0.02, 69.96,-34.85,  3.88, -8.23, -7.85,-55.16,-250.60
Uptime 00:00:54, 24.93, -0.28,  0.16,  1.03,-39.01,-49.24, 48.76,  8.67,-15.09, 34.06, 29.35,1588.79; 33.68,  0.15, -0.00,  0.89,-15.32,-42.62,-42.82, -0.27,  9.65, -9.65,-59.68,-256.17
Uptime 00:00:54, 24.88, -0.47, -0.05,  1.18, 64.79,-28.75, 61.14, -2.14,-21.64, 41.59, 25.53,1596.74; 33.68, -0.19, -0.51,  1.17, 21.09,-12.96, 15.44,-23.17, -8.59, -7.23,-59.97,-254.16
Uptime 00:00:54, 24.93, -0.14,  0.25,  0.81,  2.91, -8.50, 23.14, 16.91, -9.49, 41.47, 24.10,1599.81; 33.73,  0.38,  0.12,  1.14,-40.77,  2.70, 84.22,  5.62, 18.60,-12.29,-58.79,-242.96
Uptime 00:00:54, 24.88,  0.18,  0.06,  1.29,  9.75, 74.95, 40.52,  2.53,  7.93, 41.94, 33.01,1605.08; 33.73,  0.09, -0.11,  0.94,-52.07, 17.85, 47.06, -6.82,  5.19,-18.82,-55.44,-236.84
Uptime 00:00:55, 24.93, -0.10, -0.15,  0.91,  8.95, 36.72, 20.93, -9.34, -6.16, 42.05, 37.15,1607.80; 33.78, -0.16, -0.37,  1.17, 22.12,  0.75, 11.63,-17.13, -7.40,-15.96,-54.09,-235.33
Uptime 00:00:55, 24.88, -0.23,  0.39,  0.71,-10.95,  1.92, 99.54, 27.27,-16.02, 40.33, 36.98,1621.04; 33.87, -0.01,  0.43,  0.91,  9.66, -8.82,-49.41, 25.41, -0.33,-13.88,-54.15,-241.90
Uptime 00:00:55, 24.74, -0.17, -0.23,  1.20, -4.79, 17.15,-43.24,-10.57, -8.08, 38.70, 38.59,1615.42; 33.78, -0.06, -0.53,  1.06,-12.68,-40.96,-71.07,-26.47, -3.05,-15.74,-58.22,-251.14
Uptime 00:00:55, 24.88, -0.13,  0.08,  1.06,-10.05,-54.82, 60.96,  4.25, -6.99, 36.71, 30.86,1623.47; 33.78,  0.17, -0.05,  1.08, 59.80, -1.17, -9.00, -2.50,  8.97, -7.74,-57.39,-252.33
Uptime 00:00:55, 24.84, -0.06,  0.46,  0.80, 23.64,  0.99,-67.19, 29.95, -3.94, 39.59, 30.45,1614.73; 33.78, -0.06,  0.59,  1.07,-29.91,-10.94, 33.43, 28.84, -2.87,-10.82,-57.58,-247.98
Uptime 00:00:55, 24.88,  0.10, -0.14,  1.11, 14.15, 96.98,-20.03, -7.00,  5.06, 40.47, 42.19,1612.11; 33.78, -0.25, -0.36,  1.14,  7.35, 57.07,-27.07,-17.20,-12.00,-10.01,-48.86,-251.53
Uptime 00:00:55, 24.88, -0.51, -0.01,  1.13, 25.08,  8.44,-36.40, -0.32,-24.51, 42.92, 42.94,1607.27; 33.78, -0.16, -0.13,  1.04, 47.02,-57.75,-43.38, -6.77, -8.48, -3.81,-55.24,-257.30
Uptime 00:00:55, 24.84,  0.51,  0.40,  0.84,-18.63,-119.57, 29.45, 22.11, 28.71, 40.13, 26.27,1611.09; 33.73,  0.59,  0.12,  0.98, 37.89,  1.54,-65.88,  6.15, 31.14,  1.21,-54.56,-265.87
Uptime 00:00:56, 25.02, -0.31,  0.03,  0.85,-40.19, 17.38, -7.33,  2.08,-19.91, 34.21, 28.38,1610.13; 33.87, -0.15, -0.05,  0.58,-41.06,-65.16,-65.07, -4.90,-14.55, -4.18,-61.55,-274.39
Uptime 00:00:56, 25.02,  0.42,  0.22,  1.23,  3.31, 53.92, 28.53,  9.66, 18.54, 34.15, 34.47,1613.93; 33.92, -0.12, -0.46,  1.32, 74.50, 87.76,-83.90,-19.17, -4.85,  5.23,-48.78,-285.55
Uptime 00:00:56, 24.93, -0.58,  0.39,  0.09, 43.47, 56.20, 12.12, 34.11,-54.87, 39.69, 42.03,1615.51; 33.82, -0.15,  0.50,  1.23, 10.68, -8.09,-18.36, 22.08, -6.52,  6.93,-48.71,-287.93
Uptime 00:00:56, 24.93, -0.21, -0.23,  1.58, 44.10,-87.92,  0.87, -8.34, -7.51, 44.35, 30.14,1615.62; 33.82, -0.27, -0.99,  1.75,-28.42,-57.51, 61.67,-29.20, -7.52,  2.58,-54.91,-279.92
Uptime 00:00:56, 24.88,  0.09,  0.12,  0.70,-19.75,-14.20,-13.89,  9.36,  7.52, 41.08, 27.54,1613.77; 33.82, -0.16, -0.02,  0.74, 27.98,-97.37, -1.14, -1.73,-11.96,  6.14,-66.26,-280.07
Uptime 00:00:56, 24.93,  0.48, -0.13,  1.16, 69.24, 73.71, 50.08, -5.69, 22.52, 49.03, 36.00,1620.33; 33.82,  0.16, -0.37,  1.54,-41.73, 66.52,-12.02,-13.37,  5.93,  0.40,-56.52,-281.64
Uptime 00:00:56, 24.98, -0.19,  0.08,  1.07,-13.76,-11.56, 40.99,  4.47, -9.96, 46.36, 33.98,1625.74; 33.92,  0.14,  0.12,  1.04, -1.93,-51.01,-64.72,  6.55,  7.65,  0.27,-62.14,-290.19
Uptime 00:00:57, 24.93, -0.57, -0.14,  1.16, 37.47, -0.12, 14.38, -6.12,-26.21, 50.08, 33.81,1627.61; 33.82, -0.34, -0.54,  1.17, 14.41, 24.05,-10.43,-23.79,-14.67,  1.62,-57.54,-291.54
Uptime 00:00:57, 24.88, -0.10,  0.15,  0.80,  1.34,-47.65,-21.07, 10.40, -7.09, 49.46, 27.16,1624.85; 33.73,  0.22,  0.33,  1.30,-43.03,-53.02, 60.80, 13.97,  9.40, -3.65,-63.38,-283.58
Uptime 00:00:57, 25.02,  0.15, -0.07,  1.10,  2.79, 69.96, 47.02, -3.64,  7.55, 48.76, 35.52,1631.06; 33.92,  0.11, -0.30,  0.83,-40.31, 19.79, 47.80,-19.43,  7.19, -9.18,-59.70,-277.27
Uptime 00:00:57, 24.98, -0.12,  0.23,  1.01, 32.53,  6.25,  0.26, 12.46, -6.49, 52.18, 35.73,1631.09; 33.82,  0.04, -0.11,  1.23, 19.14,-68.24,-28.68, -5.20,  1.80, -6.66,-67.23,-281.00
Uptime 00:00:57, 24.93, -0.29,  0.16,  0.96,-23.96,-10.33, 79.57,  9.31,-16.61, 48.24, 34.02,1641.51; 33.82,  0.08,  0.32,  0.86,-37.56,-31.74,-64.33, 20.13,  5.22,-10.95,-70.07,-289.42
Uptime 00:00:57, 24.98, -0.04, -0.29,  1.46, 47.53,-31.85, 19.14,-11.10, -1.59, 53.25, 29.22,1644.06; 33.92,  0.10, -0.83,  1.29, 27.67,  0.55, -6.88,-32.67,  3.59, -7.78,-68.67,-290.34
Uptime 00:00:57, 24.98, -0.18,  0.33,  0.64,  9.99, 68.18, 32.01, 26.24,-14.35, 53.99, 37.61,1648.22; 33.87, -0.11,  0.01,  0.44, 57.54, 16.26, 67.12,  0.67,-14.13, -0.28,-64.94,-281.61
Uptime 00:00:57, 24.84,  0.26, -0.27,  1.35,-17.06,-20.37,  2.50,-11.02, 10.51, 50.51, 34.06,1648.55; 33.82,  0.58, -0.46,  0.89,-121.21, 23.33, 66.85,-23.31, 30.28,-16.18,-61.27,-272.92
Uptime 00:00:58, 24.98, -0.15,  0.32,  0.93,-22.08, 54.40, 27.51, 18.80, -8.40, 46.87, 40.95,1652.37; 33.87, -0.35, -0.10,  0.95, 42.36,-29.48,-48.88, -5.82,-20.32,-10.20,-63.66,-279.72
Uptime 00:00:58, 24.93, -0.62,  0.09,  0.88, 29.12, -7.17, 27.92,  4.94,-35.28, 49.74, 39.92,1656.00; 34.06, -0.10,  0.26,  1.09, 23.92,-18.47,-16.75, 13.50, -5.17, -6.68,-64.63,-281.89
Uptime 00:00:58, 24.98, -0.13,  0.02,  1.19,-25.49,-37.79, 65.02,  0.97, -6.36, 45.47, 34.37,1664.58; 33.96,  0.06, -0.41,  1.08, 13.58,-50.76,-31.14,-20.82,  2.82, -5.21,-69.96,-286.00
Uptime 00:00:58, 25.12,  0.01,  0.22,  0.86, 39.31,-11.34,  8.29, 14.24,  0.54, 49.85, 32.22,1665.66; 33.82, -0.10,  0.05,  0.82, 17.69, 10.00, -2.95,  3.33, -6.63, -2.78,-67.16,-286.39
Uptime 00:00:58, 24.98,  0.07,  0.24,  1.06, 20.01, 50.35, 67.22, 12.61,  3.61, 51.68, 37.97,1674.47; 33.96, -0.37,  0.05,  0.97, 64.21, 42.22, 10.24,  2.98,-20.73,  5.57,-59.98,-285.05
Uptime 00:00:58, 25.02,  0.06,  0.06,  0.65,-53.66, -1.95, -7.53,  4.87,  5.59, 43.80, 36.85,1673.47; 33.96, -0.21,  0.12,  0.61,-55.27,-26.82, 12.73, 10.40,-18.96, -1.48,-61.87,-283.37
Uptime 00:00:58, 24.98, -0.70, -0.22,  1.60, 42.56,-17.65, 13.25, -7.09,-23.60, 48.20, 34.33,1675.20; 33.87, -0.56, -0.97,  1.38,-36.45,-39.82, -7.43,-33.24,-18.50, -6.76,-65.34,-284.33
Uptime 00:00:58, 24.93,  0.19,  0.39,  0.91,-14.80,-52.20,  9.11, 22.43, 11.09, 45.79, 26.72,1676.39; 33.87,  0.24,  0.09,  1.03, 37.78,-78.65, 40.19,  4.97, 12.90, -1.67,-74.39,-279.07
Uptime 00:00:59, 24.98,  0.01, -0.02,  1.03, -7.82, 64.00, 95.53, -1.19,  0.79, 43.83, 34.51,1689.10; 33.96, -0.09,  0.08,  0.96,-52.42, 73.64,-27.64,  4.95, -5.49, -8.37,-63.19,-282.74
Uptime 00:00:59, 25.02, -0.09,  0.08,  1.23,  0.85, 15.74, 22.61,  3.71, -4.15, 43.13, 35.91,1692.03; 33.78,  0.07, -0.28,  1.34, 18.91, -2.03,-40.31,-11.61,  2.73, -6.03,-62.24,-287.98
Uptime 00:00:59, 25.07, -0.30,  0.14,  1.18, 25.75, 40.90,-36.60,  6.66,-14.29, 45.68, 40.69,1687.28; 34.06, -0.25, -0.09,  0.88, 36.42, 21.85,-46.27, -5.77,-15.96, -1.38,-57.89,-294.00
Uptime 00:00:59, 25.02, -0.22,  0.17,  0.85, 30.21,-67.83, 25.10, 11.13,-13.95, 48.93, 31.32,1690.61; 33.92, -0.02,  0.28,  1.46, -6.27,-22.78, 30.88, 10.95, -0.92, -1.95,-59.68,-289.89
Uptime 00:00:59, 25.07,  0.06, -0.02,  0.94,-19.35, 61.67,-20.32, -1.27,  3.78, 45.46, 38.47,1687.97; 33.92, -0.17, -0.10,  0.90,-53.88, 37.50, -4.36, -6.51,-10.35, -8.91,-53.51,-290.46
Uptime 00:00:59, 25.02,  0.07, -0.25,  1.02, 23.76,  7.50, -4.47,-13.90,  3.84, 47.35, 38.59,1687.38; 33.92,  0.02, -0.55,  0.92, 19.14,-45.39,  1.78,-30.88,  1.14, -6.87,-58.33,-290.22
Uptime 00:00:59, 25.07, -0.21,  0.34,  0.96,-10.62, 37.30, 93.91, 19.29,-11.48, 45.43, 42.80,1699.59; 33.92, -0.63,  0.28,  0.93,  9.40, 19.56,-67.53, 14.12,-33.01, -5.26,-54.01,-299.00
Uptime 00:01:00, 24.98, -0.42, -0.22,  1.09, 26.42,-64.76,-32.76,-10.82,-20.79, 47.70, 34.05,1695.30; 34.01, -0.08, -0.34,  0.85,-14.75,-50.85,-42.13,-22.01, -5.08, -7.49,-59.36,-304.52
Uptime 00:01:00, 25.12, -0.15, -0.08,  1.00, 22.22, 15.34, 66.29, -4.74, -8.68, 49.57, 35.56,1704.18; 33.92, -0.00, -0.05,  1.02, 23.70,  6.57,-18.63, -2.99, -0.22, -4.28,-57.30,-307.02
Uptime 00:01:00, 25.02, -0.42,  0.46,  0.77, -9.29, 28.78, -3.85, 27.85,-25.16, 47.94, 39.04,1703.68; 34.01, -0.39,  0.42,  1.00,-39.06,-32.98, 42.36, 21.20,-19.76, -8.79,-60.00,-301.47
Uptime 00:01:00, 25.02,  0.18, -0.49,  1.19, 19.02,  6.50, 31.79,-21.88,  8.02, 48.99, 38.94,1707.84; 33.92, -0.01, -0.66,  0.96,-14.69, 37.27,  2.45,-34.50, -0.54,-11.19,-54.00,-301.15
Uptime 00:01:00, 24.98, -0.04,  0.06,  0.92, 13.70, 30.05, 24.91,  3.77, -2.35, 49.86, 42.09,1711.13; 34.01, -0.04, -0.07,  1.04, -2.91,-50.52,-17.98, -3.94, -1.96,-11.42,-59.42,-303.52
Uptime 00:01:00, 24.93,  0.17,  0.26,  0.88, 18.66,-12.00, 74.84, 16.11, 10.40, 51.56, 39.51,1720.86; 34.11, -0.18,  0.27,  0.93, 16.24,  9.04,-41.49, 15.62,-10.54, -8.81,-56.87,-308.91
Uptime 00:01:00, 25.02, -0.51, -0.41,  1.15,-11.21,  2.17, 26.29,-18.05,-22.61, 48.73, 39.45,1724.30; 33.92, -0.18, -0.46,  1.00,  5.12,-38.82,-36.28,-24.27, -9.24, -8.46,-60.53,-313.67
Uptime 00:01:00, 25.02,  0.06,  0.03,  0.93, -1.44,  3.62, 40.17,  1.72,  3.45, 47.60, 39.07,1729.64; 34.01, -0.13, -0.07,  0.83, 11.32, 12.28,-12.51, -4.52, -9.08, -6.91,-57.54,-315.33
Uptime 00:01:01, 24.98, -0.15,  0.24,  1.25, 24.88, -6.78, 34.08, 10.95, -6.84, 50.04, 37.56,1734.07; 33.96, -0.02, -0.18,  0.81, 25.55,  4.18, 24.83,-12.66, -1.24, -3.77,-55.83,-312.10
Uptime 00:01:01, 25.12,  0.03,  0.27,  0.94,-13.79, -5.59, 23.48, 16.21,  1.59, 47.56, 36.05,1737.20; 34.01, -0.17, -0.17,  0.87,-55.01, 17.38, 53.28,-10.95,-10.99,-11.08,-52.23,-305.02
Uptime 00:01:01, 25.07,  0.07, -0.03,  0.89,-10.50, 28.67,-24.46, -1.66,  4.61, 45.23, 38.92,1733.99; 34.06, -0.16, -0.07,  0.77,-28.51,  3.36,-11.23, -4.73,-11.79,-14.61,-50.51,-306.49
Uptime 00:01:01, 25.12, -0.48, -0.11,  1.24, 20.05,-64.98, 35.43, -4.63,-21.01, 46.79, 30.28,1738.60; 34.01, -0.29, -0.31,  1.17, 29.90,-109.23, 11.02,-14.44,-13.64,-10.80,-63.15,-305.05
Uptime 00:01:01, 25.07,  0.40,  0.23,  0.79,  0.51,-37.80, 15.48, 14.86, 25.72, 46.21, 24.27,1740.64; 33.96,  0.34,  0.13,  0.84, 34.21,-14.23,  9.80,  7.96, 22.05, -6.00,-64.17,-303.76
Uptime 00:01:01, 25.21, -0.15, -0.27,  1.05,-28.50, 51.94, 33.72,-14.39, -7.62, 41.37, 30.55,1745.03; 34.06,  0.13, -0.57,  1.00,-86.85, 15.71,-88.86,-29.20,  6.53,-17.53,-61.01,-315.31
Uptime 00:01:01, 25.16, -0.06,  0.19,  1.16, 29.37, 32.60, 41.33,  9.36, -3.04, 44.50, 34.19,1750.44; 34.06, -0.11, -0.06,  1.18, 24.79, 40.54,-25.64, -3.04, -5.43,-14.06,-54.48,-318.67
Uptime 00:01:01, 25.02, -0.33,  0.27,  1.03, 31.02,-19.22,-37.07, 13.96,-17.21, 47.90, 31.36,1745.55; 34.01, -0.33, -0.17,  0.73, 49.15,-30.64,-21.44,-12.34,-23.49, -7.66,-56.88,-321.50
Uptime 00:01:02, 25.07,  0.23,  0.19,  1.16,-21.44,-29.21, 33.04,  9.34, 11.10, 44.38, 26.76,1749.88; 34.06,  0.12,  0.20,  1.07,-51.26, 47.13, 52.70, 10.36,  6.18,-13.88,-49.82,-314.60
Uptime 00:01:02, 25.12, -0.20,  0.06,  0.91,  4.31, 22.02, -1.67,  3.92,-12.27, 44.12, 29.28,1749.66; 33.96,  0.03, -0.20,  0.99,-37.10,-51.51, 34.05,-11.56,  1.93,-18.56,-55.42,-310.17
Uptime 00:01:02, 25.12,  0.18, -0.14,  1.12, 24.97, 47.34, 34.78, -7.03,  9.11, 46.33, 34.64,1754.25; 34.06,  0.17, -0.33,  1.08, 17.14, 25.82,-13.75,-16.59,  8.67,-16.31,-51.15,-311.99
Uptime 00:01:02, 25.07, -0.54,  0.37,  0.76,-40.80, 10.15,102.43, 21.29,-32.66, 40.63, 35.89,1767.56; 34.11, -0.56,  0.13,  0.92,-20.23,-36.59,-64.25,  6.99,-30.99,-18.42,-54.17,-320.34
Uptime 00:01:02, 25.21, -0.13, -0.11,  1.19,  5.52,-25.14, -1.42, -5.22, -6.43, 40.43, 32.02,1767.38; 34.06, -0.03, -0.44,  0.91, 12.97,-23.02,-13.47,-26.00, -1.69,-16.88,-56.05,-322.13
Uptime 00:01:02, 25.07, -0.08,  0.15,  1.08, 40.07, 33.57, 41.20,  8.13, -4.28, 44.93, 35.78,1772.77; 34.01, -0.14,  0.08,  1.25, 24.64, 31.21,  1.95,  3.47, -6.36,-13.31,-50.80,-321.88
Uptime 00:01:02, 25.12, -0.62,  0.36,  0.90,-11.81, 33.91, 15.62, 18.30,-32.44, 42.89, 40.03,1774.80; 34.01, -0.36,  0.35,  0.92,-37.59,-10.14, 39.20, 19.62,-20.21,-17.44,-50.67,-316.78
Uptime 00:01:03, 25.12,  0.11, -0.31,  1.07,  0.33, -3.43, 10.59,-16.00,  5.42, 41.76, 38.68,1776.21; 34.01, -0.17, -0.54,  1.17,-40.11, -9.39, 20.56,-24.70, -7.38,-22.81,-50.73,-314.04
Uptime 00:01:03, 25.21, -0.02,  0.19,  1.28, -5.92, 26.17, 43.65,  8.51, -0.84, 40.33, 41.28,1781.93; 34.11,  0.25, -0.44,  0.97,  9.41,-36.58,-26.69,-23.80, 13.13,-21.62,-54.67,-317.54
Uptime 00:01:03, 25.07, -0.26,  0.11,  1.04,-30.04,-39.13, 80.27,  5.90,-13.84, 35.82, 35.74,1792.37; 34.01, -0.29, -0.05,  0.94,-15.50,-46.24,-50.46, -3.16,-17.12,-23.23,-59.13,-324.10
Uptime 00:01:03, 25.21, -0.12, -0.24,  1.08, 30.89, -5.86, -0.08,-12.28, -6.34, 38.85, 34.40,1792.36; 34.11, -0.19, -0.42,  1.06,  2.94,-40.65,-20.83,-21.15, -9.53,-22.81,-63.02,-326.85
Uptime 00:01:03, 25.16, -0.34,  0.07,  1.05, 17.73, 36.67, 59.49,  3.38,-17.80, 40.40, 38.74,1800.09; 34.11,  0.02, -0.16,  0.94, 15.12, 10.98,-43.53, -9.46,  1.26,-20.61,-60.38,-332.51
Uptime 00:01:03, 25.12,  0.34,  0.13,  0.92, 23.96,-67.34,-33.39,  7.80, 20.21, 42.80, 28.98,1795.75; 34.01,  0.60,  0.13,  1.13, -2.59,-66.81, 26.54,  5.93, 27.71,-20.41,-68.24,-329.06
Uptime 00:01:03, 25.07, -0.43,  0.07,  0.93, 20.28, 85.82, 48.64,  3.67,-25.02, 44.78, 40.59,1802.51; 34.01, -0.23, -0.49,  0.95, -1.27, 59.09,-33.35,-26.80,-12.07,-20.71,-58.58,-333.70
Uptime 00:01:03, 25.12, -0.13, -0.10,  1.05,  2.68,-31.94, 30.59, -5.18, -6.90, 44.12, 35.85,1806.49; 34.01, -0.02, -0.16,  1.09,-16.07, -3.01, 26.59, -8.56, -1.00,-22.52,-57.78,-330.24
Uptime 00:01:04, 25.16, -0.00,  0.07,  0.95, 14.92,  3.56, 52.14,  4.10, -0.07, 45.27, 35.60,1813.42; 34.11,  0.29, -0.09,  0.72, 11.28,-18.87,  3.34, -6.92, 21.69,-20.74,-59.51,-329.80
Uptime 00:01:04, 25.21, -0.30, -0.05,  0.97,-32.91, 40.26, 84.49, -2.55,-16.98, 40.09, 40.39,1824.49; 34.15, -0.51,  0.02,  0.94, -8.02, 29.62, 11.81,  1.03,-28.71,-21.33,-53.95,-328.25
Uptime 00:01:04, 25.21, -0.19,  0.16,  1.06,-23.66,-34.67,  2.72,  8.24, -9.79, 36.44, 35.36,1824.84; 34.06, -0.22,  0.04,  0.98,  0.01,-54.06,-32.11,  2.27,-12.47,-20.86,-59.51,-332.42
Uptime 00:01:04, 25.12, -0.31, -0.24,  1.03, 17.53, 42.44,-49.99,-12.73,-16.41, 37.74, 40.52,1818.20; 34.11, -0.20, -0.22,  0.82, 18.99,  1.09,-87.41,-14.50,-13.04,-18.26,-57.91,-344.05
Uptime 00:01:04, 25.21, -0.43,  0.18,  1.03, 27.18,-70.43,  2.73,  9.12,-22.23, 40.66, 31.11,1818.55; 34.06, -0.16, -0.16,  0.86, 14.21,-82.14,-17.59,-10.45,-10.24,-16.28,-67.09,-346.35
Uptime 00:01:04, 25.26,  0.20,  0.55,  0.99, -2.54,-14.17,-75.42, 28.69, 10.04, 40.09, 28.48,1808.75; 34.15,  0.48,  0.29,  1.23, -1.33,-11.82, 23.75, 12.31, 20.91,-15.87,-67.68,-343.27
Uptime 00:01:04, 25.21,  0.26, -0.28,  0.93, -4.51, 44.17, -2.20,-16.28, 15.06, 38.38, 33.37,1808.46; 34.06,  0.07, -0.37,  0.97,-33.35, 12.14,-52.36,-20.52,  3.79,-20.31,-64.82,-350.23
Uptime 00:01:05, 25.26,  0.10,  0.23,  0.91, 20.88, 35.27, -3.63, 13.91,  6.11, 40.57, 37.11,1807.98; 34.01,  0.26, -0.14,  0.93, 53.70, 18.72,-24.39, -8.12, 15.68,-13.17,-61.43,-353.42
Uptime 00:01:05, 25.12, -0.44,  0.16,  0.89,-21.75,-15.98, 48.44,  9.36,-25.88, 37.17, 34.85,1814.28; 34.15, -0.23,  0.27,  0.93,-30.01,-33.34,-76.68, 15.63,-13.17,-16.42,-64.19,-363.39
Uptime 00:01:05, 25.26, -0.31, -0.33,  1.44, 76.63,-35.08,  3.57,-12.65,-11.83, 46.09, 29.85,1814.75; 34.15, -0.14, -0.75,  1.27,  4.79,-37.89,-33.30,-30.28, -5.48,-16.08,-67.69,-367.79
Uptime 00:01:05, 25.21, -0.13,  0.27,  0.84,  0.99, 39.34,-12.49, 17.54, -8.73, 45.65, 34.48,1813.11; 34.15, -0.28,  0.37,  0.91, -2.25, 34.54, 32.68, 20.92,-16.01,-15.63,-61.59,-363.51
Uptime 00:01:05, 25.26,  0.12,  0.10,  1.09,-22.31,-34.30, -5.80,  5.06,  6.45, 41.93, 29.19,1812.34; 34.25,  0.17, -0.11,  0.91,-93.75,-16.96, 51.32, -6.96, 10.53,-27.67,-62.78,-356.68
Uptime 00:01:05, 25.12,  0.06,  0.22,  1.09,-16.63, 21.25, -2.64, 11.58,  3.14, 39.20, 31.25,1812.00; 34.25,  0.01, -0.34,  1.31, 38.57,-46.99,-48.14,-14.56,  0.53,-22.50,-67.52,-362.94
Uptime 00:01:05, 25.16, -0.18,  0.16,  0.92,-20.51,  9.21,111.89,  9.96,-10.66, 36.00, 32.01,1826.54; 34.15, -0.22,  0.58,  0.93,-18.46, 25.25,-57.64, 31.17,-11.66,-23.78,-62.72,-370.43
Uptime 00:01:05, 25.21, -0.18, -0.38,  1.50, 47.09,-55.36, 36.17,-14.12, -6.66, 41.14, 24.29,1831.35; 34.15,  0.20, -0.95,  1.33, 20.31,-65.02,-10.91,-35.32,  6.87,-21.36,-70.07,-371.88
Uptime 00:01:06, 25.26, -0.08,  0.34,  0.60, 13.14, 32.95,  7.24, 29.21, -6.61, 42.59, 28.16,1832.30; 34.20, -0.27,  0.26,  0.26, 42.65, 38.67, 58.19, 34.71,-36.38,-14.76,-62.98,-364.26
Uptime 00:01:06, 25.21,  0.45, -0.45,  1.30, 27.92, 16.02, 12.70,-18.02, 18.29, 44.93, 29.27,1833.95; 34.11,  0.74, -0.72,  1.44,-106.85, 32.03, 47.95,-23.94, 24.72,-28.56,-58.13,-358.03
Uptime 00:01:06, 25.26,  0.15,  0.21,  0.96, -2.37,  6.55, 35.46, 12.04,  8.92, 43.96, 29.36,1838.67; 34.15,  0.01, -0.07,  0.82, 51.66,-24.26,-25.75, -4.65,  0.81,-21.35,-60.15,-361.45
Uptime 00:01:06, 25.21, -0.31, -0.25,  0.96, -7.75,-51.45, 29.10,-13.78,-17.47, 41.82, 22.57,1842.45; 34.20,  0.19, -0.24,  1.03, 47.19,-35.60, 23.92,-12.71, 10.22,-15.16,-63.69,-358.34
Uptime 00:01:06, 25.31, -0.20,  0.12,  0.93,-20.82, 61.01, 34.23,  7.43,-12.27, 38.48, 30.14,1846.90; 34.20, -0.40,  0.07,  0.81,-36.69,-16.18,-47.09,  4.12,-25.94,-19.45,-63.96,-364.46
Uptime 00:01:06, 25.16,  0.23, -0.44,  1.19,  9.02,-35.11,  6.72,-19.99, 10.35, 38.48, 24.79,1847.79; 34.20,  0.35, -0.60,  1.02,-32.49,-10.49,-43.64,-29.16, 16.40,-23.85,-64.36,-370.22
Uptime 00:01:06, 25.26, -0.36,  0.27,  1.10, 23.02, 38.47, 59.19, 13.20,-17.52, 40.93, 29.58,1855.54; 34.20, -0.39,  0.21,  1.08, 54.51,-13.20,-43.27, 10.52,-19.27,-16.16,-64.38,-375.89
Uptime 00:01:06, 25.26, -0.00,  0.49,  1.09, -7.64,-39.82,-61.83, 24.04, -0.00, 39.59, 23.80,1847.32; 34.20, -0.01,  0.03,  1.07,-59.82, -0.27, -5.53,  1.75, -0.35,-23.60,-63.12,-376.63
Uptime 00:01:07, 25.21, -0.16, -0.03,  0.98, -2.11, 12.72, 40.32, -1.61, -8.97, 38.50, 25.12,1852.56; 34.20, -0.14, -0.12,  1.15,-20.08,  8.98, 30.09, -5.99, -7.09,-25.81,-60.58,-372.72
Uptime 00:01:07, 25.26, -0.18,  0.27,  0.94, -2.76, 25.31,  3.68, 15.45,-10.50, 37.69, 28.05,1853.04; 34.20, -0.03, -0.01,  0.87,-16.54,-81.78, 23.46, -0.73, -1.69,-27.41,-69.75,-369.67
Uptime 00:01:07, 25.31,  0.28, -0.01,  1.16, 19.89, 62.02, 62.40, -0.39, 13.52, 39.52, 35.31,1861.34; 34.20, -0.30, -0.19,  1.09,  0.85, 85.94,  2.86, -9.48,-15.43,-26.94,-56.84,-369.29
Uptime 00:01:07, 25.26, -0.26,  0.01,  0.99, -1.05,  5.25, 30.56,  0.71,-14.91, 38.61, 35.57,1865.31; 34.11,  0.25, -0.18,  0.86, -6.40,-21.46,-67.72,-11.41, 15.68,-27.45,-58.76,-378.09
Uptime 00:01:07, 25.21, -0.18, -0.10,  1.10, 48.44,-47.30, 14.59, -5.09, -9.17, 43.91, 29.01,1867.21; 34.20, -0.23, -0.39,  1.06, 41.06,-49.46,-28.34,-19.94,-11.38,-22.07,-63.66,-381.77
Uptime 00:01:07, 25.26, -0.42,  0.33,  0.80, 10.33, 62.47, 43.60, 19.95,-26.00, 44.77, 37.10,1873.01; 34.20, -0.18,  0.51,  1.62,-18.92,  2.32, 32.88, 17.24, -6.20,-23.75,-61.96,-377.40
Uptime 00:01:07, 25.40,  0.13, -0.12,  1.12, -2.71, 13.79, 28.26, -5.92,  6.77, 43.41, 37.99,1876.71; 34.25,  0.09, -0.11,  0.88,-66.80, 35.82, 58.36, -6.79,  6.09,-31.98,-56.24,-369.76
Uptime 00:01:08, 25.35, -0.17,  0.09,  1.25, -4.40, 74.87, 30.18,  3.89, -7.50, 42.06, 46.92,1880.63; 34.20, -0.24, -0.46,  0.97, 17.80,-10.62, -7.20,-24.77,-12.47,-29.57,-56.22,-370.69
Uptime 00:01:08, 25.31, -0.02,  0.34,  1.10,  5.37,-11.43,114.27, 17.03, -0.90, 42.26, 44.51,1895.83; 34.25, -0.47,  0.30,  0.93, 19.81, -6.88,-33.38, 16.14,-25.52,-26.08,-55.48,-375.13
Uptime 00:01:08, 25.26, -0.22, -0.35,  1.03, 24.71,-101.07, -3.62,-18.42,-11.61, 44.22, 30.87,1895.36; 34.11, -0.05, -0.52,  1.09, -4.14,-80.84,-42.54,-25.45, -2.32,-26.59,-64.62,-380.66
Uptime 00:01:08, 25.40,  0.13,  0.17,  0.81, -4.94, 20.58, 45.77, 11.47,  8.68, 42.92, 32.75,1901.40; 34.25,  0.07, -0.07,  0.82, 54.31, 20.55,  9.61, -4.63,  4.80,-19.07,-60.75,-379.38
Uptime 00:01:08, 25.26, -0.12,  0.16,  0.98, 39.09, 33.71,  3.07,  9.33, -6.68, 47.23, 36.52,1901.80; 34.25, -0.19,  0.33,  1.18,-17.50, 11.97, 19.67, 15.26, -8.86,-20.62,-57.83,-376.83
Uptime 00:01:08, 25.40,  0.18, -0.23,  1.08, -0.59, 56.75, 15.33,-11.85,  9.13, 45.98, 42.84,1903.79; 34.25, -0.04, -0.13,  1.01,-30.77, 32.23,  4.59, -7.58, -2.30,-24.27,-52.52,-376.23
Uptime 00:01:08, 25.31, -0.13,  0.24,  0.96, -9.69, 21.04,-17.05, 14.05, -7.45, 44.08, 44.87,1901.52; 34.25, -0.23, -0.05,  0.79, -1.88,-35.36,-17.35, -3.15,-16.44,-24.10,-55.75,-378.54
Uptime 00:01:08, 25.31, -0.32,  0.37,  1.20, -7.32,-94.58, 41.22, 16.75,-14.11, 42.59, 32.11,1906.92; 34.20, -0.03, -0.22,  1.32, 18.42,-135.77,  3.44, -9.31, -1.27,-21.46,-71.91,-378.09
Uptime 00:01:09, 25.40, -0.23,  0.17,  0.93,  6.47, 71.79, 57.98, 10.02,-13.63, 42.76, 40.82,1914.40; 34.25, -0.17,  0.47,  0.94, -4.97, 38.41, 40.05, 26.40, -9.44,-21.13,-65.39,-372.88
Uptime 00:01:09, 25.49,  0.02, -0.32,  1.08, 20.92, 39.18,  3.36,-16.30,  1.16, 44.30, 45.09,1914.85; 34.25,  0.39, -0.56,  1.02,-42.68,  4.83,-47.98,-27.10, 18.32,-26.81,-63.82,-379.26
Uptime 00:01:09, 25.31, -0.24,  0.25,  1.01,-13.26, 11.54, 65.14, 13.64,-13.04, 42.00, 45.92,1923.31; 34.25, -0.13,  0.09,  0.99, 51.72, 16.12,-56.13,  5.11, -7.42,-19.59,-60.34,-386.56
Uptime 00:01:09, 25.35, -0.54,  0.17,  0.67, 34.68, -7.33,-25.89, 11.03,-37.92, 45.80, 44.82,1919.95; 34.29, -0.29, -0.06,  0.82, 52.76,-53.91,-21.04, -3.92,-19.56,-12.55,-65.61,-389.30
Uptime 00:01:09, 25.40,  0.07, -0.06,  1.10,-26.39, 26.46, 14.24, -3.28,  3.86, 41.22, 47.45,1921.93; 34.25, -0.04, -0.22,  0.92,-28.34, 45.24, 53.81,-13.18, -2.15,-16.42,-58.09,-381.82
Uptime 00:01:09, 25.45, -0.12,  0.18,  0.89,-17.01,  3.99, 47.33, 11.41, -7.67, 38.46, 47.16,1928.08; 34.20, -0.05, -0.12,  0.92,  0.47,-26.07, 23.37, -7.52, -2.78,-16.19,-60.20,-378.78
Uptime 00:01:09, 25.40,  0.27, -0.05,  0.79, 20.45, 45.80,  8.20, -3.40, 18.48, 40.27, 51.78,1929.16; 34.20,  0.33, -0.26,  1.11, 27.89, 25.13,  1.02,-12.64, 16.13,-12.51,-56.06,-378.64
Uptime 00:01:10, 25.45, -0.35, -0.03,  0.97,-47.93,-67.46, 57.86, -1.80,-20.04, 33.32, 42.55,1936.68; 34.29,  0.08,  0.09,  0.89,  0.28,-78.84,-58.71,  5.90,  5.03,-12.10,-65.09,-386.28
Uptime 00:01:10, 25.31, -0.12, -0.00,  1.17, 36.41,-13.89,  6.33, -0.03, -5.65, 37.32, 40.03,1937.51; 34.29, -0.16, -0.35,  1.00, 33.14,-15.30,-23.58,-19.22, -8.35, -7.99,-65.58,-389.36
Uptime 00:01:10, 25.45,  0.00,  0.20,  1.23, -2.53,-16.20, 50.85,  9.06,  0.01, 36.43, 37.13,1944.23; 34.20, -0.06, -0.21,  0.66, 52.38, -8.87, 15.38,-17.20, -4.91, -1.40,-65.32,-387.33
Uptime 00:01:10, 25.40,  0.04,  0.10,  1.03,-28.24, 10.28, -0.49,  5.59,  1.98, 32.22, 37.66,1944.16; 34.29, -0.11, -0.04,  0.89,-69.12,  3.50, 58.09, -2.57, -6.87,-10.23,-63.43,-379.78
Uptime 00:01:10, 25.45,  0.10, -0.14,  0.85, 11.67, 34.50, -2.76, -9.36,  6.34, 32.87, 41.17,1943.80; 34.20,  0.05, -0.52,  0.99, -4.33, -9.04,  1.98,-27.77,  2.79,-11.13,-63.37,-379.53
Uptime 00:01:10, 25.40, -0.19,  0.30,  0.57, 22.30, -9.17, 75.65, 26.36,-16.61, 35.65, 39.49,1953.87; 34.29,  0.23,  0.24,  0.95, 41.69,  3.47,  8.56, 13.60, 12.89, -5.20,-61.91,-378.39
Uptime 00:01:10, 25.45, -0.50, -0.06,  0.92,-17.11, -5.97,  4.06, -3.22,-28.20, 32.69, 38.50,1954.39; 34.29, -0.14, -0.08,  0.91, -2.31,-50.61,-41.15, -5.21, -8.49, -5.50,-66.95,-383.74
Uptime 00:01:10, 25.49,  0.01, -0.14,  1.07, 16.12,-29.27, 45.80, -7.55,  0.76, 33.94, 33.99,1960.35; 34.29, -0.03, -0.29,  1.09, 48.18,-19.65,-23.21,-14.68, -1.31,  0.46,-68.08,-386.75
Uptime 00:01:11, 25.45, -0.46,  0.41,  0.52, 15.76, 56.34, -5.91, 30.37,-34.62, 35.94, 41.40,1959.56; 34.20, -0.23,  0.28,  1.01,  4.97, 11.28, 39.03, 14.96,-12.20,  1.40,-65.00,-381.52
Uptime 00:01:11, 25.45,  0.50, -0.77,  1.19, 15.76, 18.18,-16.03,-30.93, 19.24, 36.61, 42.50,1957.47; 34.25,  0.09, -0.65,  1.15,-38.62, 65.38,  5.46,-29.44,  3.76, -4.14,-55.44,-380.81
Uptime 00:01:11, 25.49, -0.38,  0.31,  0.93, -5.75,  8.57, 23.22, 17.10,-21.10, 35.47, 43.19,1960.56; 34.25,  0.01, -0.03,  0.69, 30.51,-62.65,-24.74, -2.11,  0.75, -0.12,-62.52,-384.10
Uptime 00:01:11, 25.49, -0.19, -0.06,  1.05, 35.15,-68.03, 18.91, -3.29,-10.01, 39.18, 33.86,1963.02; 34.29,  0.16, -0.24,  1.05, 51.32,-103.07,-10.75,-12.63,  8.28,  6.17,-74.56,-385.50
Uptime 00:01:11, 25.40,  0.02,  0.10,  1.01,-24.94, 84.43, 54.33,  5.85,  1.11, 35.31, 44.00,1970.14; 34.29, -0.25,  0.03,  0.92,-39.98, 33.82,-37.99,  1.73,-15.18,  0.95,-68.42,-390.48
Uptime 00:01:11, 25.45,  0.09, -0.30,  1.13, 32.21, -7.22,-26.28,-14.69,  4.47, 38.47, 42.10,1966.67; 34.34,  0.44, -0.37,  1.07,-34.60, 14.11,-16.82,-17.79, 21.05, -3.90,-65.65,-392.70
Uptime 00:01:11, 25.40, -0.26,  0.46,  1.03, 25.55, 16.03, 62.55, 23.35,-12.95, 41.43, 43.55,1974.80; 34.34, -0.37,  0.32,  1.17, 46.70, -1.52,-21.09, 14.40,-16.92,  2.41,-64.19,-395.44
Uptime 00:01:11, 25.40, -0.01,  0.39,  1.09, 13.89,-21.34,-39.99, 19.82, -0.40, 42.78, 39.95,1969.56; 34.34, -0.24,  0.29,  1.25,-59.32, -1.86, -8.91, 12.97,-10.43, -4.99,-62.94,-396.61
Uptime 00:01:12, 25.49, -0.15,  0.08,  1.26,  3.34,-46.01, 22.67,  3.56, -6.66, 42.43, 33.29,1972.58; 34.34, -0.21, -0.17,  1.13,  7.29,-45.28, 23.98, -8.31,-10.61, -4.11,-67.37,-393.42
Uptime 00:01:12, 25.45,  0.11,  0.15,  0.80, -0.07,-24.47, 27.40, 10.61,  7.40, 41.78, 29.36,1976.14; 34.34,  0.30, -0.18,  0.74, 10.68,-67.94, 24.67,-12.87, 21.77, -2.92,-75.12,-390.21
Uptime 00:01:12, 25.49,  0.14,  0.32,  1.05, 20.24, 68.14, 45.85, 17.01,  7.02, 43.86, 37.31,1982.10; 34.34, -0.48,  0.08,  1.19, -6.62, 94.14,-41.76,  3.44,-21.76, -3.64,-61.18,-395.64
Uptime 00:01:12, 25.35,  0.24,  0.10,  1.10, -9.26,-22.43, 33.74,  5.21, 12.10, 41.88, 33.40,1986.59; 34.34,  0.27, -0.25,  1.02,-14.40,-17.74,-66.48,-13.61, 14.44, -5.71,-62.56,-404.48
Uptime 00:01:12, 25.49, -0.32, -0.04,  1.10, 44.51,-13.56, 22.35, -1.97,-16.31, 46.68, 31.33,1989.49; 34.25, -0.05, -0.17,  1.15, 28.45,-24.09,-12.14, -8.58, -2.26, -2.15,-64.33,-406.06
Uptime 00:01:12, 25.45, -0.07,  0.74,  0.86, 11.17, 91.76,-20.03, 40.75, -3.30, 48.00, 42.64,1986.85; 34.34, -0.12,  0.69,  1.13,-29.23, 50.11, 57.93, 31.16, -5.37, -5.26,-56.46,-398.41
Uptime 00:01:12, 25.49,  0.15, -0.61,  1.24, 26.65,-17.57,  0.03,-25.96,  6.27, 49.95, 39.41,1986.85; 34.25,  0.14, -0.56,  0.91,-75.58,-11.56, 24.77,-31.23,  7.55,-15.48,-56.96,-395.17
Uptime 00:01:13, 25.54, -0.05,  0.13,  1.07, -7.38, 42.37,  4.08,  7.17, -2.77, 48.14, 44.11,1987.38; 34.29, -0.01, -0.14,  0.92, 51.55,-40.49,-24.86, -8.63, -0.89, -8.73,-61.00,-398.43
Uptime 00:01:13, 25.49,  0.19,  0.33,  1.17, -9.53, 33.91, 79.27, 15.55,  8.77, 46.26, 47.44,1997.85; 34.39, -0.55,  0.36,  0.91,  3.37, 35.53,-61.62, 18.57,-29.29, -7.75,-54.60,-406.56
Uptime 00:01:13, 25.54, -0.01, -0.56,  1.14, 32.62,-104.27, 16.14,-26.01, -0.33, 49.00, 33.11,1999.96; 34.34,  0.20, -0.52,  1.13,-34.78,-99.59,-44.94,-24.51,  9.15,-12.55,-66.48,-412.45
Uptime 00:01:13, 25.59, -0.10,  0.32,  1.05, 17.34, 51.18, 29.77, 16.77, -5.01, 50.58, 39.12,2003.86; 34.39, -0.11,  0.07,  0.96, 29.77, 25.21, 19.41,  4.27, -6.74, -8.39,-61.78,-409.90
Uptime 00:01:13, 25.49,  0.32,  0.20,  1.20, -4.42, -1.10, 13.08,  9.22, 14.78, 49.18, 37.90,2005.59; 34.29,  0.16,  0.01,  1.05,-42.16, 27.06,  9.95,  0.71,  8.49,-13.66,-57.21,-408.59
Uptime 00:01:13, 25.54, -0.22,  0.12,  0.97, -8.91, 29.44, 21.14,  6.61,-12.77, 47.20, 41.15,2008.34; 34.39, -0.09, -0.15,  1.07, -6.54,-18.18,-26.65, -8.01, -4.54,-14.38,-58.29,-412.05
Uptime 00:01:13, 25.45,  0.04,  0.00,  0.93, 18.99,-44.95,-20.80,  0.14,  2.29, 48.67, 34.55,2005.63; 34.39,  0.06, -0.10,  0.98, 46.56,-65.94,  0.18, -5.82,  3.57, -8.28,-65.60,-412.03
Uptime 00:01:13, 25.54,  0.09,  0.27,  0.84, 10.53, 19.79, 59.45, 17.57,  5.93, 49.42, 36.32,2013.54; 34.39,  0.30,  0.24,  1.22, 28.56, 30.38, -0.59, 11.00, 13.66, -4.17,-60.60,-412.11
Uptime 00:01:14, 25.49, -0.26, -0.09,  0.83, -6.11,-18.15, 38.06, -6.21,-17.51, 47.53, 33.63,2018.49; 34.29,  0.01,  0.05,  0.90,-43.18,-59.22,-42.83,  3.03,  0.51, -9.53,-66.94,-417.68
Uptime 00:01:14, 25.49,  0.39, -0.20,  1.15, 42.89, 67.85, 16.90, -9.19, 18.48, 51.95, 41.37,2020.72; 34.48,  0.15, -0.59,  1.21, -4.14, 83.06,-51.03,-25.83,  6.42,-10.39,-54.99,-424.41
Uptime 00:01:14, 25.49,  0.03,  0.30,  0.91,  7.24,-26.69, 31.39, 18.36,  1.80, 52.22, 37.03,2024.89; 34.39, -0.06,  0.11,  0.40, 36.74,-21.13,-26.91, 16.01, -7.65, -5.11,-56.47,-427.97
Uptime 00:01:14, 25.54, -0.06, -0.25,  1.10,-55.56,-40.79,-50.35,-12.91, -2.86, 43.89, 31.19,2018.40; 34.48,  0.19, -0.25,  0.95,-66.10,-24.35,-32.80,-14.38, 10.91,-13.72,-58.66,-432.23
Uptime 00:01:14, 25.49,  0.10,  0.30,  1.06,-15.32, 16.95,  2.18, 15.94,  5.37, 41.34, 32.66,2018.69; 34.29, -0.18,  0.05,  1.15,-25.81,-30.07, 16.88,  2.25, -9.04,-16.76,-61.23,-429.98
Uptime 00:01:14, 25.54,  0.22,  0.11,  1.08,  3.89,-40.30, 25.05,  5.81, 11.62, 41.12, 26.64,2021.95; 34.48,  0.59, -0.24,  0.73, 40.12,-49.33, -6.91,-14.38, 37.30,-11.60,-67.03,-430.88
Uptime 00:01:14, 25.59, -0.54,  0.32,  0.91,  2.04,122.98, 73.83, 16.74,-29.34, 40.90, 42.49,2031.62; 34.34, -0.50,  0.01,  0.98,-38.86, 57.56,-43.27,  0.77,-27.30,-16.34,-57.76,-436.55
Uptime 00:01:14, 25.49,  0.27, -0.22,  1.00, -3.03,-41.28,  4.75,-11.75, 14.86, 39.45, 36.00,2032.24; 34.34,  0.10, -0.17,  0.79, 13.73,-11.23,-64.49,-12.03,  6.82,-14.48,-58.19,-445.06
Uptime 00:01:15, 25.59, -0.04,  0.09,  1.18, 37.84,-63.30, 37.05,  4.17, -1.72, 43.57, 27.25,2037.06; 34.39, -0.18, -0.05,  1.26, 17.78,-56.09, -4.48, -2.33, -8.12,-11.97,-64.01,-445.65
Uptime 00:01:15, 25.54, -0.22,  0.37,  1.03,-26.22, 56.72, -9.51, 19.34,-11.44, 39.74, 34.16,2035.82; 34.39, -0.51,  0.14,  0.93,-49.18, 25.33, 22.54,  7.53,-28.74,-17.85,-58.93,-442.72
Uptime 00:01:15, 25.59,  0.36, -0.21,  1.14,  4.36, -0.27,  1.40,-10.01, 17.22, 39.34, 33.09,2036.02; 34.44,  0.14, -0.37,  1.02,-19.50, -9.71,-14.66,-19.49,  7.58,-20.54,-59.22,-444.75
Uptime 00:01:15, 25.54, -0.29,  0.21,  1.13, 21.47, -5.80, 89.79, 10.45,-14.00, 41.50, 31.97,2047.69; 34.44,  0.15, -0.05,  0.73, 55.05, 10.11,-10.16, -3.60, 11.52,-13.18,-56.98,-446.07
Uptime 00:01:15, 25.59, -0.48,  0.06,  1.01,-33.67,-27.11, 10.33,  2.89,-25.07, 36.34, 28.30,2049.07; 34.39, -0.29,  0.11,  0.77,-24.20,-32.44,-59.32,  7.83,-20.46,-15.92,-59.66,-453.96
Uptime 00:01:15, 25.64, -0.02,  0.00,  1.23, 24.77,-55.57, 69.51,  0.05, -1.05, 38.79, 20.62,2058.17; 34.34, -0.00, -0.52,  1.02, 48.97,-46.29, 24.33,-26.98, -0.16, -9.85,-64.41,-450.78
Uptime 00:01:15, 25.64, -0.48,  0.64,  0.77, 16.44, 63.38, -4.98, 35.19,-25.68, 40.81, 28.80,2057.52; 34.44, -0.17,  0.29,  1.11,-21.38,-22.94, 42.13, 14.66, -8.36,-12.09,-65.88,-445.30
Uptime 00:01:16, 25.64,  0.66, -0.69,  1.16, 24.68, 56.79,-18.17,-27.48, 25.93, 42.66, 35.10,2055.11; 34.44,  0.07, -0.72,  1.07,-25.62, 55.42,-16.88,-33.75,  3.10,-15.86,-57.40,-447.54
Uptime 00:01:16, 25.68, -0.35,  0.25,  0.91,  0.65,-34.87, 53.63, 14.14,-20.40, 42.18, 30.30,2062.19; 34.44,  0.00,  0.05,  0.89, 46.21,-63.31,-17.58,  3.13,  0.22, -9.55,-64.38,-449.85
Uptime 00:01:16, 25.59, -0.22,  0.14,  1.20, 12.76, 21.96, 48.21,  6.67,-10.58, 43.08, 32.68,2068.41; 34.44, -0.55,  0.18,  1.15,-10.62, 41.35,  1.23,  7.96,-25.26,-10.55,-57.32,-449.69
Uptime 00:01:16, 25.59, -0.07, -0.14,  0.97, -7.76,-22.06, 45.05, -7.96, -4.06, 41.05, 29.25,2074.35; 34.44,  0.01, -0.24,  0.89,-25.14,-34.93, -2.25,-14.78,  0.68,-13.89,-60.71,-449.98
Uptime 00:01:16, 25.64,  0.17,  0.13,  1.01, 44.62, 21.30, 30.23,  7.16,  9.48, 46.06, 31.19,2078.28; 34.53,  0.14, -0.06,  1.05, 37.66, 31.33, -7.95, -3.33,  7.83, -8.88,-55.66,-451.02
Uptime 00:01:16, 25.64,  0.13,  0.19,  1.20, 44.51, 56.55, 42.82,  9.19,  6.25, 51.04, 37.70,2083.89; 34.48, -0.14,  0.06,  0.71, 43.26, 33.09,  6.44,  4.50,-11.25, -3.06,-50.07,-450.17
Uptime 00:01:16, 25.59,  0.03, -0.02,  0.90,-42.45,-33.51,-39.01, -1.41,  2.09, 44.50, 32.57,2078.74; 34.48, -0.18,  0.04,  0.70,-45.61, -5.34,-14.68,  3.15,-14.20, -8.83,-49.48,-452.11
Uptime 00:01:16, 25.64, -0.32, -0.31,  1.34, 28.08,-29.30, 64.75,-12.53,-13.14, 46.94, 28.45,2087.16; 34.39, -0.26, -0.42,  1.22,-14.85,-72.29, -9.07,-18.43,-11.28,-10.92,-57.47,-453.29
Uptime 00:01:17, 25.59,  0.17,  0.18,  1.00,-16.17, -8.49, 25.28, 10.01,  9.40, 44.09, 26.59,2090.52; 34.44,  0.01, -0.06,  0.84, -2.88,-62.01, 31.40, -4.21,  0.50,-11.16,-64.41,-449.12
Uptime 00:01:17, 25.64,  0.01,  0.12,  1.01, 44.07, 44.86, 63.89,  6.94,  0.72, 48.96, 31.76,2098.83; 34.58,  0.09,  0.11,  1.31,  4.54, 62.00, -0.62,  4.85,  3.92,-10.26,-55.31,-449.20
Uptime 00:01:17, 25.68, -0.33, -0.00,  1.01, -7.08,  5.44, 84.82, -0.19,-17.79, 47.08, 32.17,2109.86; 34.39, -0.19, -0.28,  0.84,-10.28,-36.04,-19.26,-17.87,-12.27,-11.72,-58.55,-451.70
Uptime 00:01:17, 25.68,  0.50,  0.18,  1.08, -7.75, 10.96,  9.75,  8.62, 24.57, 45.30, 32.47,2111.15; 34.48,  0.00,  0.02,  1.00, 10.30, -3.57,-33.78,  0.88,  0.15,-10.12,-57.84,-456.19
Uptime 00:01:17, 25.49, -0.44,  0.00,  1.07, 36.95,-43.91, -2.41,  0.05,-22.55, 49.14, 26.63,2110.84; 34.48, -0.37, -0.23,  0.79, 14.91,-52.64,-36.39,-14.85,-24.37, -8.30,-62.96,-460.96
Uptime 00:01:17, 25.54,  0.61,  0.19,  0.98,-41.20,-17.82,-26.93,  9.59, 31.38, 43.10, 23.20,2107.34; 34.48,  0.40,  0.10,  1.15,-42.71,  0.29, 54.77,  4.77, 19.00,-13.48,-62.04,-453.84
Uptime 00:01:17, 25.59,  0.09, -0.11,  1.13, 25.75, 48.54, 36.41, -5.56,  4.69, 45.48, 28.97,2112.18; 34.48,  0.12, -0.22,  0.90,-21.90,  8.92, 13.99,-13.63,  7.38,-16.34,-59.79,-451.98
Uptime 00:01:18, 25.73, -0.03, -0.01,  0.94, 36.63, 35.56, 27.91, -0.31, -2.04, 49.23, 32.96,2115.81; 34.58,  0.08, -0.08,  1.24, 18.09, 14.77, -4.94, -3.88,  3.60,-13.79,-56.78,-452.62
Uptime 00:01:18, 25.59, -0.26,  0.23,  1.11,-42.51, -7.91, 63.49, 11.35,-13.09, 43.02, 31.55,2124.12; 34.48, -0.30,  0.18,  0.99,-46.43,-44.00,-75.67,  9.77,-16.62,-19.28,-60.96,-462.53
Uptime 00:01:18, 25.73, -0.08, -0.35,  1.24, 39.70,-47.72, 15.63,-15.72, -3.46, 46.98, 24.81,2126.19; 34.48, -0.16, -0.71,  1.17,  4.96,-49.51, -9.06,-30.99, -6.67,-18.87,-66.01,-463.73
Uptime 00:01:18, 25.68,  0.08,  0.37,  1.13, 11.52, 24.23, 44.91, 18.15,  3.64, 47.88, 27.35,2132.07; 34.48, -0.26,  0.03,  0.84, 48.36, 11.64, 41.84,  1.84,-17.04,-12.25,-62.86,-458.25
Uptime 00:01:18, 25.68,  0.34, -0.07,  1.22,-33.35,-27.36,  6.15, -3.09, 15.46, 42.51, 22.93,2132.89; 34.48,  0.02, -0.27,  0.97,-54.86,-20.29, 33.00,-15.57,  1.17,-19.47,-64.27,-453.86
Uptime 00:01:18, 25.68,  0.05,  0.07,  0.96, 11.57, 53.12,  5.48,  4.10,  3.07, 43.22, 29.18,2133.60; 34.58,  0.10, -0.06,  1.15, 23.38, -0.38,-37.55, -2.73,  4.72,-16.15,-63.13,-458.74
Uptime 00:01:18, 25.78,  0.17,  0.20,  0.94, 17.98, -4.46, 61.86, 11.61, 10.04, 44.88, 27.83,2141.64; 34.53,  0.24,  0.21,  1.14, -2.83,  7.83,-38.16, 10.45, 11.71,-15.98,-61.10,-463.70
Uptime 00:01:18, 25.68, -0.36, -0.32,  1.23,-18.56,-46.44, 38.81,-13.81,-15.86, 41.28, 21.53,2146.81; 34.48, -0.08, -0.43,  1.09,-33.14,-80.35,-29.52,-21.25, -4.12,-20.40,-70.27,-467.62
Uptime 00:01:19, 25.78, -0.01,  0.14,  1.06, 31.93, 49.18, 25.13,  7.27, -0.59, 44.70, 27.43,2150.10; 34.53, -0.18, -0.04,  0.81, 15.40, 42.31, -1.04, -2.95,-12.26,-18.08,-63.19,-467.76
Uptime 00:01:19, 25.73, -0.06,  0.11,  1.15, 40.01, 24.26, 55.39,  5.40, -3.18, 49.01, 30.03,2157.30; 34.58, -0.17, -0.05,  1.02, 34.13, 13.89, 12.62, -2.79, -9.69,-13.42,-59.96,-466.12
Uptime 00:01:19, 25.68,  0.01,  0.02,  0.95,-50.01,-24.66, 16.85,  0.93,  0.72, 41.53, 26.21,2159.54; 34.53,  0.33, -0.08,  0.85,-40.19,-28.41, 31.00, -5.18, 20.96,-18.50,-62.88,-462.00
Uptime 00:01:19, 25.64, -0.24, -0.09,  1.18, 10.04, 15.34,-12.35, -4.32,-11.71, 41.91, 27.89,2157.92; 34.53, -0.35, -0.36,  0.98,-20.10,-22.65,-25.72,-18.97,-18.34,-21.09,-64.17,-465.37
Uptime 00:01:19, 25.68,  0.29,  0.44,  1.33,-28.19,-23.56, 12.52, 17.81, 11.76, 37.83, 24.09,2159.55; 34.53,  0.02,  0.06,  0.89, 30.68,-57.57, -1.69,  3.83,  1.18,-16.68,-70.24,-465.59
Uptime 00:01:19, 25.73,  0.04,  0.23,  0.86,  8.39, 31.02, 57.08, 15.13,  2.65, 38.46, 27.57,2167.08; 34.53,  0.02,  0.19,  0.88, 13.20, 51.71, 20.54, 12.06,  1.20,-14.40,-62.17,-462.87
Uptime 00:01:19, 25.68, -0.11,  0.08,  1.12, 15.31, 33.36, 52.53,  4.06, -5.59, 39.73, 31.38,2173.91; 34.62,  0.00, -0.04,  1.17, 23.06, -4.41,-47.18, -2.06,  0.18,-11.21,-61.49,-469.01
Uptime 00:01:19, 25.73, -0.05,  0.13,  0.92, 24.19, -1.59, 15.39,  7.91, -3.32, 42.24, 30.61,2175.96; 34.62, -0.04,  0.20,  0.83,  5.69, 17.77,-29.69, 13.70, -2.55, -9.97,-57.89,-472.96
Uptime 00:01:20, 25.68, -0.11,  0.11,  1.10,-15.92,-69.48, 56.41,  5.71, -5.67, 39.48, 21.26,2183.29; 34.53, -0.07, -0.00,  1.27,-17.73,-53.51, 29.55, -0.02, -3.10,-12.03,-63.49,-469.11
Uptime 00:01:20, 25.73,  0.08, -0.01,  1.16,-11.17, 72.54, 14.52, -0.54,  3.89, 37.26, 30.00,2185.18; 34.62, -0.16, -0.08,  0.92,-35.64, 23.73, 20.10, -4.89, -9.60,-16.43,-59.01,-466.50
Uptime 00:01:20, 25.68,  0.29, -0.10,  1.08, 23.60, 33.01,  2.08, -5.25, 15.05, 39.49, 33.40,2185.46; 34.62,  0.33, -0.43,  1.19,  2.02, 12.46,-14.45,-19.33, 14.56,-16.22,-56.49,-468.42
Uptime 00:01:20, 25.73, -0.48,  0.34,  0.79,-44.80,  0.69, 86.15, 19.91,-28.98, 33.34, 33.40,2196.74; 34.67, -0.45,  0.23,  0.84,-13.90, -1.31,-12.16, 13.28,-27.16,-17.42,-54.99,-470.02
Uptime 00:01:20, 25.78, -0.40, -0.29,  1.01, 40.05,-39.60, -0.86,-14.98,-20.98, 37.48, 28.11,2196.63; 34.72, -0.13, -0.39,  0.94, -1.10,-34.09,-31.55,-22.50, -7.39,-17.66,-58.09,-474.12
Uptime 00:01:20, 25.73,  0.03,  0.16,  1.21, 28.19,-29.97, 37.92,  7.61,  1.46, 40.56, 23.61,2201.67; 34.62, -0.15, -0.15,  0.75, 21.48,-13.63, -1.93,-10.74,-10.88,-14.72,-58.48,-474.37
Uptime 00:01:20, 25.78,  0.13,  0.12,  0.92,-55.35,-15.21,  4.37,  7.20,  7.96, 32.84, 21.04,2202.24; 34.67, -0.06, -0.09,  1.14,-48.13, -0.94, 46.99, -4.37, -3.14,-20.65,-57.37,-468.26
Uptime 00:01:21, 25.78,  0.24, -0.13,  1.04, 18.47, 45.38, -5.88, -7.17, 12.82, 34.39, 26.14,2201.48; 34.58,  0.01, -0.27,  1.04,-27.62,  0.73,-18.04,-14.74,  0.30,-24.05,-56.14,-470.61
Uptime 00:01:21, 25.78, -0.05,  0.17,  0.75,  2.18, 20.35, 72.70, 12.55, -3.97, 34.25, 28.47,2211.58; 34.58,  0.13, -0.10,  0.92, 19.69, 21.77,-12.94, -6.27,  8.08,-21.01,-52.21,-472.41
Uptime 00:01:21, 25.73,  0.03,  0.14,  1.07, -5.66,  4.60, 36.18,  7.30,  1.52, 32.99, 28.46,2216.32; 34.67, -0.11, -0.09,  0.88,  2.96,-40.73,-83.27, -6.05, -7.17,-20.33,-56.25,-483.32
Uptime 00:01:21, 25.73, -0.30, -0.27,  1.16, 15.99,-37.13, 40.81,-12.86,-14.00, 34.14, 23.37,2221.71; 34.58, -0.27, -0.34,  1.05, 25.17,-19.78,-12.91,-17.56,-13.71,-17.02,-57.41,-485.02
Uptime 00:01:21, 25.87,  0.11,  0.41,  1.21,  0.19, 25.68, 16.49, 18.82,  4.81, 33.86, 26.08,2223.85; 34.67, -0.13, -0.04,  0.91, 26.33,  1.91, 10.76, -2.45, -8.25,-13.38,-55.85,-483.62
Uptime 00:01:21, 25.78, -0.13,  0.40,  0.97,-26.11,-17.97,  0.32, 22.37, -7.03, 30.27, 23.39,2223.89; 34.67,  0.09,  0.15,  1.06,-40.86, -8.58, 34.60,  7.81,  4.99,-18.20,-55.94,-479.09
Uptime 00:01:21, 25.78,  0.35, -0.30,  0.86,  1.79, 28.38,-12.64,-17.65, 20.97, 29.55, 26.20,2222.21; 34.76, -0.06, -0.38,  1.05, -0.68, -3.05,-20.62,-20.12, -3.17,-18.32,-55.15,-481.83
Uptime 00:01:21, 25.78, -0.17,  0.20,  0.90, -5.88,-35.21, 23.53, 12.02,-10.20, 28.45, 21.40,2225.27; 34.67,  0.04, -0.01,  1.05, 12.74,-44.32,-16.53, -0.49,  1.92,-16.34,-59.73,-483.98
Uptime 00:01:22, 25.78, -0.17,  0.01,  1.07, 33.92, 16.89,-12.60,  0.62, -8.85, 32.21, 23.30,2223.63; 34.76,  0.14, -0.04,  1.13, 45.34, 14.69,-23.06, -2.02,  6.96,-10.28,-56.81,-486.98
Uptime 00:01:22, 25.82, -0.29, -0.13,  1.15, -7.00,-10.66, 48.04, -6.37,-14.04, 30.53, 21.73,2230.02; 34.67, -0.15, -0.15,  1.11,-13.47,-37.82,-30.91, -7.79, -7.85,-11.99,-60.44,-491.09
Uptime 00:01:22, 25.78, -0.13, -0.10,  1.02, -1.66,  9.45,  3.42, -5.58, -7.28, 29.60, 22.64,2230.47; 34.76, -0.19,  0.03,  0.76,  2.57, 13.30, 11.28,  1.82,-13.88,-11.38,-57.26,-489.62
Uptime 00:01:22, 25.82,  0.32,  0.06,  1.29, 49.14, -8.26, 15.45,  2.51, 13.91, 35.31, 20.86,2232.48; 34.67,  0.13, -0.05,  1.23, 50.65, 13.48,-29.03, -2.36,  6.02, -4.75,-54.52,-493.40
Uptime 00:01:22, 25.78, -0.37,  0.06,  0.46, -0.48, 54.96, 40.18,  6.14,-38.37, 34.67, 28.37,2237.82; 34.76, -0.06,  0.08,  0.58,  9.90,-29.65,-46.11,  7.45, -5.78, -3.21,-57.18,-499.53
Uptime 00:01:22, 25.82, -0.45, -0.13,  1.28, -4.40,-53.19, -2.28, -5.55,-19.10, 33.30, 21.36,2237.52; 34.67, -0.45, -0.60,  1.18,-65.99,-48.33, -9.03,-25.39,-18.75,-12.13,-61.86,-500.71
Uptime 00:01:22, 25.78,  0.29,  0.26,  1.22,-29.03,-28.90, 24.46, 11.79, 13.10, 29.11, 16.93,2240.75; 34.72, -0.08, -0.07,  0.82, 14.44,-99.82, 98.97, -5.16, -5.56,-10.12,-73.43,-487.65
Uptime 00:01:23, 25.73,  0.10,  0.01,  1.21, 15.95,-10.49, 71.66,  0.27,  4.53, 30.57, 15.16,2250.07; 34.72, -0.14,  0.13,  1.03,  8.97, 69.88, 32.33,  7.35, -7.87, -8.63,-62.90,-483.44
Uptime 00:01:23, 25.78, -0.44,  0.18,  1.15, 20.12,  2.79, 56.53,  8.46,-20.91, 32.71, 15.64,2257.47; 34.76,  0.12, -0.13,  1.04,  4.62,-44.29,-46.65, -7.26,  6.51, -8.01,-67.46,-489.55
Uptime 00:01:23, 25.82,  0.04,  0.34,  0.82, 25.79, 35.79, 36.95, 22.54,  2.79, 35.87, 19.93,2262.39; 34.76, -0.18,  0.30,  0.87,  3.89, 29.93,-44.97, 18.50,-11.30, -6.97,-61.98,-495.54
Uptime 00:01:23, 25.87, -0.21, -0.28,  1.11, -3.17,-42.06,  1.66,-13.79,-10.44, 34.47, 14.39,2262.60; 34.72, -0.11, -0.49,  1.05,-50.02,-77.04,-16.92,-24.82, -5.39,-13.70,-70.45,-497.74
Uptime 00:01:23, 25.82, -0.01,  0.18,  0.97, -0.17, 17.47,-10.86, 10.73, -0.37, 33.97, 16.35,2261.18; 34.72, -0.25,  0.04,  0.95, -7.46,-37.94, 33.03,  2.16,-14.81,-14.34,-73.61,-493.41
Uptime 00:01:23, 25.87,  0.23, -0.15,  0.84,-16.24, 15.63, -6.37,-10.08, 14.90, 30.98, 17.76,2260.33; 34.72,  0.52, -0.57,  0.47, 43.40,  1.42,-43.01,-39.11, 35.38, -9.18,-72.66,-499.13
Uptime 00:01:23, 25.82, -0.41, -0.09,  1.09,-40.45, 55.97,  9.98, -4.66,-20.63, 25.11, 24.95,2261.63; 34.72, -0.41, -0.25,  1.01,  2.36,-35.05,-123.49,-12.83,-21.53, -8.95,-75.25,-515.18
Uptime 00:01:23, 25.87,  0.02,  0.09,  0.94, -4.59, -8.11,-49.85,  5.33,  1.30, 24.13, 23.39,2255.15; 34.72,  0.01, -0.12,  0.83, 18.88, -0.52,-99.23, -8.06,  0.80, -6.53,-73.82,-528.08
Uptime 00:01:24, 25.92,  0.03, -0.01,  1.06,  8.89, 17.45, 12.53, -0.68,  1.56, 24.79, 25.17,2256.82; 34.81,  0.04, -0.22,  1.15, 47.46,-39.94,-36.82,-10.94,  2.16, -0.43,-77.60,-532.98
Uptime 00:01:24, 25.87, -0.55, -0.13,  1.04,-22.13, 32.21, -1.97, -6.46,-27.78, 21.33, 29.35,2256.56; 34.72, -0.14, -0.13,  1.41,-47.53, 58.49, 55.00, -5.17, -5.46, -6.63,-68.43,-525.77
Uptime 00:01:24, 25.78, -0.17, -0.20,  0.88,  3.20, -4.35,  9.60,-12.76,-10.86, 21.06, 28.42,2257.83; 34.67, -0.22, -0.31,  1.05,-20.16,-72.43,-20.40,-16.15,-11.57, -9.43,-76.19,-528.47
Uptime 00:01:24, 25.87,  0.08, -0.36,  0.45, 16.33, 90.17, 28.69,-38.40,  7.75, 21.97, 39.27,2261.59; 34.81,  0.50, -0.13,  1.06, 24.99, 14.31,-39.35, -6.24, 25.18, -6.16,-73.34,-533.62
Uptime 00:01:24, 25.87, -0.52,  0.00,  0.72,-18.59,-77.05, 53.31,  0.27,-35.66, 19.15, 29.31,2268.57; 34.76, -0.11, -0.03,  0.95,-10.05,-79.20,-49.47, -2.06, -6.56, -7.36,-81.91,-540.10
